subject_id,trial_number,trial_id,plain,sws,instruction_number,sound1_item,sound2_item,sound3_item,top_image,left_image,right_image,sound_gender,trial_type,date_stamp,time_stamp,side_chosen,accuracy,rt,play_counter,order,pic_position,distance,chosen_pic,test_lang,testing_loc,tester,date_of_birth,ethnicity,native_lang,other_langs,parental_occ,dev_info,birth_order,num_siblings,gender
07XWx,1,0,fem_plain,fem_sws,1,fireman,glasses,fireman,glasses,fireman,tractor,fem_plain_fem_sws,training,2/23/2017,21:45,left,true,3121,1,2_1_2_1,word_2_word_1_word_3,far,fireman,English_Speech,adult,megan,,,,,,,,,male
07XWx,1,0,fem_plain,fem_sws,2,fireman,glasses,fireman,glasses,fireman,tractor,fem_plain_fem_sws,training,2/23/2017,21:45,top_img,true,2027,1,2_1_2_1,word_2_word_1_word_3,far,glasses,English_Speech,adult,megan,,,,,,,,,male
07XWx,1,0,fem_plain,fem_sws,3,fireman,glasses,fireman,glasses,fireman,tractor,fem_plain_fem_sws,training,2/23/2017,21:45,left,true,3385,2,2_1_2_1,word_2_word_1_word_3,far,fireman,English_Speech,adult,megan,,,,,,,,,male
07XWx,2,4,fem_plain,fem_sws,1,strawberry,coat,strawberry,flower,strawberry,coat,fem_plain_fem_sws,critical,2/23/2017,21:45,left,true,3165,1,1_2_1_1,word_3_word_2_word_1,far,strawberry,English_Speech,adult,megan,,,,,,,,,male
07XWx,2,4,fem_plain,fem_sws,2,strawberry,coat,strawberry,flower,strawberry,coat,fem_plain_fem_sws,critical,2/23/2017,21:45,right,true,2514,1,1_2_1_1,word_3_word_2_word_1,far,coat,English_Speech,adult,megan,,,,,,,,,male
07XWx,2,4,fem_plain,fem_sws,3,strawberry,coat,strawberry,flower,strawberry,coat,fem_plain_fem_sws,critical,2/23/2017,21:45,left,true,3796,1,1_2_1_1,word_3_word_2_word_1,far,strawberry,English_Speech,adult,megan,,,,,,,,,male
07XWx,3,5,fem_plain,fem_sws,1,orange,car,car,mouth,car,orange,fem_plain_fem_sws,critical,2/23/2017,21:45,right,true,4284,1,2_1_1_1,word_3_word_2_word_1,near,orange,English_Speech,adult,megan,,,,,,,,,male
07XWx,3,5,fem_plain,fem_sws,2,orange,car,car,mouth,car,orange,fem_plain_fem_sws,critical,2/23/2017,21:45,left,true,2582,1,2_1_1_1,word_3_word_2_word_1,near,car,English_Speech,adult,megan,,,,,,,,,male
07XWx,3,5,fem_plain,fem_sws,3,orange,car,car,mouth,car,orange,fem_plain_fem_sws,critical,2/23/2017,21:45,left,true,2726,1,2_1_1_1,word_3_word_2_word_1,near,car,English_Speech,adult,megan,,,,,,,,,male
07XWx,4,2,fem_plain,fem_sws,1,bed,chicken,fork,chicken,fork,bed,fem_plain_fem_sws,critical,2/23/2017,21:45,right,true,3889,1,2_1_1_0,word_2_word_3_word_1,different,bed,English_Speech,adult,megan,,,,,,,,,male
07XWx,4,2,fem_plain,fem_sws,2,bed,chicken,fork,chicken,fork,bed,fem_plain_fem_sws,critical,2/23/2017,21:45,top_img,true,3004,1,2_1_1_0,word_2_word_3_word_1,different,chicken,English_Speech,adult,megan,,,,,,,,,male
07XWx,4,2,fem_plain,fem_sws,3,bed,chicken,fork,chicken,fork,bed,fem_plain_fem_sws,critical,2/23/2017,21:45,left,true,2717,1,2_1_1_0,word_2_word_3_word_1,different,fork,English_Speech,adult,megan,,,,,,,,,male
07XWx,5,21,fem_plain,fem_sws,1,frog,sheep,sheep,sheep,eye,frog,fem_plain_fem_sws,critical,2/23/2017,21:45,right,true,3316,1,1_2_2_1,word_2_word_3_word_1,near,frog,English_Speech,adult,megan,,,,,,,,,male
07XWx,5,21,fem_plain,fem_sws,2,frog,sheep,sheep,sheep,eye,frog,fem_plain_fem_sws,critical,2/23/2017,21:45,top_img,true,1959,1,1_2_2_1,word_2_word_3_word_1,near,sheep,English_Speech,adult,megan,,,,,,,,,male
07XWx,5,21,fem_plain,fem_sws,3,frog,sheep,sheep,sheep,eye,frog,fem_plain_fem_sws,critical,2/23/2017,21:45,top_img,true,2027,1,1_2_2_1,word_2_word_3_word_1,near,sheep,English_Speech,adult,megan,,,,,,,,,male
07XWx,6,19,fem_plain,fem_sws,1,tree,santa,building_blocks,santa,tree,building_blocks,fem_plain_fem_sws,critical,2/23/2017,21:45,left,true,2524,1,2_1_1_0,word_1_word_3_word_2,different,tree,English_Speech,adult,megan,,,,,,,,,male
07XWx,6,19,fem_plain,fem_sws,2,tree,santa,building_blocks,santa,tree,building_blocks,fem_plain_fem_sws,critical,2/23/2017,21:45,top_img,true,3431,1,2_1_1_0,word_1_word_3_word_2,different,santa,English_Speech,adult,megan,,,,,,,,,male
07XWx,6,19,fem_plain,fem_sws,3,tree,santa,building_blocks,santa,tree,building_blocks,fem_plain_fem_sws,critical,2/23/2017,21:45,right,true,3106,1,2_1_1_0,word_1_word_3_word_2,different,building_blocks,English_Speech,adult,megan,,,,,,,,,male
07XWx,7,12,fem_plain,fem_sws,1,gloves,yoghurt,yoghurt,gloves,foot,yoghurt,fem_plain_fem_sws,critical,2/23/2017,21:45,top_img,true,3259,1,2_1_1_1,word_3_word_1_word_2,near,gloves,English_Speech,adult,megan,,,,,,,,,male
07XWx,7,12,fem_plain,fem_sws,2,gloves,yoghurt,yoghurt,gloves,foot,yoghurt,fem_plain_fem_sws,critical,2/23/2017,21:45,right,true,2479,1,2_1_1_1,word_3_word_1_word_2,near,yoghurt,English_Speech,adult,megan,,,,,,,,,male
07XWx,7,12,fem_plain,fem_sws,3,gloves,yoghurt,yoghurt,gloves,foot,yoghurt,fem_plain_fem_sws,critical,2/23/2017,21:45,right,true,2254,1,2_1_1_1,word_3_word_1_word_2,near,yoghurt,English_Speech,adult,megan,,,,,,,,,male
07XWx,8,10,fem_plain,fem_sws,1,hat,pig,hat,hat,tshirt,pig,fem_plain_fem_sws,critical,2/23/2017,21:45,top_img,true,2065,1,2_1_2_1,word_3_word_2_word_1,far,hat,English_Speech,adult,megan,,,,,,,,,male
07XWx,8,10,fem_plain,fem_sws,2,hat,pig,hat,hat,tshirt,pig,fem_plain_fem_sws,critical,2/23/2017,21:45,right,true,2009,1,2_1_2_1,word_3_word_2_word_1,far,pig,English_Speech,adult,megan,,,,,,,,,male
07XWx,8,10,fem_plain,fem_sws,3,hat,pig,hat,hat,tshirt,pig,fem_plain_fem_sws,critical,2/23/2017,21:45,top_img,true,2419,1,2_1_2_1,word_3_word_2_word_1,far,hat,English_Speech,adult,megan,,,,,,,,,male
07XWx,9,6,fem_plain,fem_sws,1,bird,carrot,bird,peas,carrot,bird,fem_plain_fem_sws,critical,2/23/2017,21:45,right,true,2583,1,2_1_2_1,word_2_word_3_word_1,far,bird,English_Speech,adult,megan,,,,,,,,,male
07XWx,9,6,fem_plain,fem_sws,2,bird,carrot,bird,peas,carrot,bird,fem_plain_fem_sws,critical,2/23/2017,21:45,left,true,2847,1,2_1_2_1,word_2_word_3_word_1,far,carrot,English_Speech,adult,megan,,,,,,,,,male
07XWx,9,6,fem_plain,fem_sws,3,bird,carrot,bird,peas,carrot,bird,fem_plain_fem_sws,critical,2/23/2017,21:45,right,true,2487,1,2_1_2_1,word_2_word_3_word_1,far,bird,English_Speech,adult,megan,,,,,,,,,male
07XWx,10,20,fem_plain,fem_sws,1,apple,rabbit,jumper,jumper,rabbit,apple,fem_plain_fem_sws,critical,2/23/2017,21:45,right,true,3526,1,2_1_1_0,word_1_word_2_word_3,different,apple,English_Speech,adult,megan,,,,,,,,,male
07XWx,10,20,fem_plain,fem_sws,2,apple,rabbit,jumper,jumper,rabbit,apple,fem_plain_fem_sws,critical,2/23/2017,21:45,left,true,2413,1,2_1_1_0,word_1_word_2_word_3,different,rabbit,English_Speech,adult,megan,,,,,,,,,male
07XWx,10,20,fem_plain,fem_sws,3,apple,rabbit,jumper,jumper,rabbit,apple,fem_plain_fem_sws,critical,2/23/2017,21:45,top_img,true,1695,1,2_1_1_0,word_1_word_2_word_3,different,jumper,English_Speech,adult,megan,,,,,,,,,male
07XWx,11,24,fem_plain,fem_sws,1,socks,sink,fish,socks,fish,sink,fem_plain_fem_sws,critical,2/23/2017,21:45,top_img,true,2653,1,2_1_2_0,word_3_word_2_word_1,different,socks,English_Speech,adult,megan,,,,,,,,,male
07XWx,11,24,fem_plain,fem_sws,2,socks,sink,fish,socks,fish,sink,fem_plain_fem_sws,critical,2/23/2017,21:45,right,true,4873,1,2_1_2_0,word_3_word_2_word_1,different,sink,English_Speech,adult,megan,,,,,,,,,male
07XWx,11,24,fem_plain,fem_sws,3,socks,sink,fish,socks,fish,sink,fem_plain_fem_sws,critical,2/23/2017,21:45,left,true,2514,1,2_1_2_0,word_3_word_2_word_1,different,fish,English_Speech,adult,megan,,,,,,,,,male
07XWx,12,15,fem_plain,fem_sws,1,pencil,beans,pencil,pencil,beans,slide,fem_plain_fem_sws,critical,2/23/2017,21:45,top_img,true,2035,1,1_2_1_1,word_2_word_3_word_1,far,pencil,English_Speech,adult,megan,,,,,,,,,male
07XWx,12,15,fem_plain,fem_sws,2,pencil,beans,pencil,pencil,beans,slide,fem_plain_fem_sws,critical,2/23/2017,21:45,left,true,3302,1,1_2_1_1,word_2_word_3_word_1,far,beans,English_Speech,adult,megan,,,,,,,,,male
07XWx,12,15,fem_plain,fem_sws,3,pencil,beans,pencil,pencil,beans,slide,fem_plain_fem_sws,critical,2/23/2017,21:45,top_img,true,1915,1,1_2_1_1,word_2_word_3_word_1,far,pencil,English_Speech,adult,megan,,,,,,,,,male
07XWx,13,18,fem_plain,fem_sws,1,camera,ball,raspberry,ball,camera,raspberry,fem_plain_fem_sws,critical,2/23/2017,21:45,left,true,2420,2,1_2_2_0,word_1_word_3_word_2,different,camera,English_Speech,adult,megan,,,,,,,,,male
07XWx,13,18,fem_plain,fem_sws,2,camera,ball,raspberry,ball,camera,raspberry,fem_plain_fem_sws,critical,2/23/2017,21:45,top_img,true,2584,1,1_2_2_0,word_1_word_3_word_2,different,ball,English_Speech,adult,megan,,,,,,,,,male
07XWx,13,18,fem_plain,fem_sws,3,camera,ball,raspberry,ball,camera,raspberry,fem_plain_fem_sws,critical,2/23/2017,21:45,right,true,2774,1,1_2_2_0,word_1_word_3_word_2,different,raspberry,English_Speech,adult,megan,,,,,,,,,male
07XWx,14,22,fem_plain,fem_sws,1,dog,bike,bike,doctor,bike,dog,fem_plain_fem_sws,critical,2/23/2017,21:45,right,true,2354,1,1_2_2_1,word_3_word_1_word_2,near,dog,English_Speech,adult,megan,,,,,,,,,male
07XWx,14,22,fem_plain,fem_sws,2,dog,bike,bike,doctor,bike,dog,fem_plain_fem_sws,critical,2/23/2017,21:45,left,true,2627,1,1_2_2_1,word_3_word_1_word_2,near,bike,English_Speech,adult,megan,,,,,,,,,male
07XWx,14,22,fem_plain,fem_sws,3,dog,bike,bike,doctor,bike,dog,fem_plain_fem_sws,critical,2/23/2017,21:45,left,true,2716,1,1_2_2_1,word_3_word_1_word_2,near,bike,English_Speech,adult,megan,,,,,,,,,male
07XWx,15,11,fem_plain,fem_sws,1,lorry,cow,book,lorry,cow,book,fem_plain_fem_sws,critical,2/23/2017,21:45,top_img,true,2056,1,2_1_1_0,word_2_word_3_word_1,different,lorry,English_Speech,adult,megan,,,,,,,,,male
07XWx,15,11,fem_plain,fem_sws,2,lorry,cow,book,lorry,cow,book,fem_plain_fem_sws,critical,2/23/2017,21:45,left,true,3242,1,2_1_1_0,word_2_word_3_word_1,different,cow,English_Speech,adult,megan,,,,,,,,,male
07XWx,15,11,fem_plain,fem_sws,3,lorry,cow,book,lorry,cow,book,fem_plain_fem_sws,critical,2/23/2017,21:45,right,true,2419,1,2_1_1_0,word_2_word_3_word_1,different,book,English_Speech,adult,megan,,,,,,,,,male
07XWx,16,1,fem_plain,fem_sws,1,spoon,baby,train,baby,train,spoon,fem_plain_fem_sws,critical,2/23/2017,21:45,right,true,2049,1,2_1_1_0,word_2_word_3_word_1,different,spoon,English_Speech,adult,megan,,,,,,,,,male
07XWx,16,1,fem_plain,fem_sws,2,spoon,baby,train,baby,train,spoon,fem_plain_fem_sws,critical,2/23/2017,21:45,top_img,true,2321,1,2_1_1_0,word_2_word_3_word_1,different,baby,English_Speech,adult,megan,,,,,,,,,male
07XWx,16,1,fem_plain,fem_sws,3,spoon,baby,train,baby,train,spoon,fem_plain_fem_sws,critical,2/23/2017,21:45,left,true,2808,1,2_1_1_0,word_2_word_3_word_1,different,train,English_Speech,adult,megan,,,,,,,,,male
07XWx,17,23,fem_plain,fem_sws,1,teddy_bear,table,bath,bath,table,teddy_bear,fem_plain_fem_sws,critical,2/23/2017,21:45,right,true,3000,1,1_2_2_0,word_1_word_3_word_2,different,teddy_bear,English_Speech,adult,megan,,,,,,,,,male
07XWx,17,23,fem_plain,fem_sws,2,teddy_bear,table,bath,bath,table,teddy_bear,fem_plain_fem_sws,critical,2/23/2017,21:45,left,true,3238,1,1_2_2_0,word_1_word_3_word_2,different,table,English_Speech,adult,megan,,,,,,,,,male
07XWx,17,23,fem_plain,fem_sws,3,teddy_bear,table,bath,bath,table,teddy_bear,fem_plain_fem_sws,critical,2/23/2017,21:45,top_img,true,2688,1,1_2_2_0,word_1_word_3_word_2,different,bath,English_Speech,adult,megan,,,,,,,,,male
07XWx,18,9,fem_plain,fem_sws,1,grapes,window,window,grapes,window,pizza,fem_plain_fem_sws,critical,2/23/2017,21:45,top_img,true,2028,1,1_2_2_1,word_3_word_2_word_1,near,grapes,English_Speech,adult,megan,,,,,,,,,male
07XWx,18,9,fem_plain,fem_sws,2,grapes,window,window,grapes,window,pizza,fem_plain_fem_sws,critical,2/23/2017,21:45,left,true,2442,1,1_2_2_1,word_3_word_2_word_1,near,window,English_Speech,adult,megan,,,,,,,,,male
07XWx,18,9,fem_plain,fem_sws,3,grapes,window,window,grapes,window,pizza,fem_plain_fem_sws,critical,2/23/2017,21:45,left,true,2228,1,1_2_2_1,word_3_word_2_word_1,near,window,English_Speech,adult,megan,,,,,,,,,male
07XWx,19,14,fem_plain,fem_sws,1,door,cheese,shoes,door,shoes,cheese,fem_plain_fem_sws,critical,2/23/2017,21:45,top_img,true,3172,1,1_2_2_0,word_3_word_2_word_1,different,door,English_Speech,adult,megan,,,,,,,,,male
07XWx,19,14,fem_plain,fem_sws,2,door,cheese,shoes,door,shoes,cheese,fem_plain_fem_sws,critical,2/23/2017,21:45,right,true,1998,1,1_2_2_0,word_3_word_2_word_1,different,cheese,English_Speech,adult,megan,,,,,,,,,male
07XWx,19,14,fem_plain,fem_sws,3,door,cheese,shoes,door,shoes,cheese,fem_plain_fem_sws,critical,2/23/2017,21:45,left,true,2678,1,1_2_2_0,word_3_word_2_word_1,different,shoes,English_Speech,adult,megan,,,,,,,,,male
07XWx,20,13,fem_plain,fem_sws,1,airplane,toothbrush,bread,airplane,toothbrush,bread,fem_plain_fem_sws,critical,2/23/2017,21:45,top_img,true,2162,1,2_1_1_0,word_2_word_1_word_3,different,airplane,English_Speech,adult,megan,,,,,,,,,male
07XWx,20,13,fem_plain,fem_sws,2,airplane,toothbrush,bread,airplane,toothbrush,bread,fem_plain_fem_sws,critical,2/23/2017,21:45,left,true,2138,1,2_1_1_0,word_2_word_1_word_3,different,toothbrush,English_Speech,adult,megan,,,,,,,,,male
07XWx,20,13,fem_plain,fem_sws,3,airplane,toothbrush,bread,airplane,toothbrush,bread,fem_plain_fem_sws,critical,2/23/2017,21:45,right,true,2796,1,2_1_1_0,word_2_word_1_word_3,different,bread,English_Speech,adult,megan,,,,,,,,,male
07XWx,21,17,fem_plain,fem_sws,1,hand,ambulance,ambulance,ambulance,cake,hand,fem_plain_fem_sws,critical,2/23/2017,21:45,right,true,3030,1,2_1_1_1,word_2_word_1_word_3,near,hand,English_Speech,adult,megan,,,,,,,,,male
07XWx,21,17,fem_plain,fem_sws,2,hand,ambulance,ambulance,ambulance,cake,hand,fem_plain_fem_sws,critical,2/23/2017,21:45,top_img,true,1674,1,2_1_1_1,word_2_word_1_word_3,near,ambulance,English_Speech,adult,megan,,,,,,,,,male
07XWx,21,17,fem_plain,fem_sws,3,hand,ambulance,ambulance,ambulance,cake,hand,fem_plain_fem_sws,critical,2/23/2017,21:45,top_img,true,2077,1,2_1_1_1,word_2_word_1_word_3,near,ambulance,English_Speech,adult,megan,,,,,,,,,male
07XWx,22,7,fem_plain,fem_sws,1,cat,horse,lolly,horse,cat,lolly,fem_plain_fem_sws,critical,2/23/2017,21:45,left,true,3051,1,2_1_2_0,word_2_word_3_word_1,different,cat,English_Speech,adult,megan,,,,,,,,,male
07XWx,22,7,fem_plain,fem_sws,2,cat,horse,lolly,horse,cat,lolly,fem_plain_fem_sws,critical,2/23/2017,21:45,top_img,true,2211,1,2_1_2_0,word_2_word_3_word_1,different,horse,English_Speech,adult,megan,,,,,,,,,male
07XWx,22,7,fem_plain,fem_sws,3,cat,horse,lolly,horse,cat,lolly,fem_plain_fem_sws,critical,2/23/2017,21:45,right,true,2789,1,2_1_2_0,word_2_word_3_word_1,different,lolly,English_Speech,adult,megan,,,,,,,,,male
07XWx,23,3,fem_plain,fem_sws,1,nose,telephone,nose,telephone,trousers,nose,fem_plain_fem_sws,critical,2/23/2017,21:45,right,true,2589,1,1_2_1_1,word_3_word_1_word_2,far,nose,English_Speech,adult,megan,,,,,,,,,male
07XWx,23,3,fem_plain,fem_sws,2,nose,telephone,nose,telephone,trousers,nose,fem_plain_fem_sws,critical,2/23/2017,21:45,top_img,true,3028,1,1_2_1_1,word_3_word_1_word_2,far,telephone,English_Speech,adult,megan,,,,,,,,,male
07XWx,23,3,fem_plain,fem_sws,3,nose,telephone,nose,telephone,trousers,nose,fem_plain_fem_sws,critical,2/23/2017,21:45,right,true,2293,1,1_2_1_1,word_3_word_1_word_2,far,nose,English_Speech,adult,megan,,,,,,,,,male
07XWx,24,8,fem_plain,fem_sws,1,wellyboots,fire_engine,ear,fire_engine,ear,wellyboots,fem_plain_fem_sws,critical,2/23/2017,21:45,right,true,2595,1,2_1_2_0,word_2_word_3_word_1,different,wellyboots,English_Speech,adult,megan,,,,,,,,,male
07XWx,24,8,fem_plain,fem_sws,2,wellyboots,fire_engine,ear,fire_engine,ear,wellyboots,fem_plain_fem_sws,critical,2/23/2017,21:45,top_img,true,2976,1,2_1_2_0,word_2_word_3_word_1,different,fire_engine,English_Speech,adult,megan,,,,,,,,,male
07XWx,24,8,fem_plain,fem_sws,3,wellyboots,fire_engine,ear,fire_engine,ear,wellyboots,fem_plain_fem_sws,critical,2/23/2017,21:45,left,true,2375,1,2_1_2_0,word_2_word_3_word_1,different,ear,English_Speech,adult,megan,,,,,,,,,male
07XWx,25,16,fem_plain,fem_sws,1,banana,paintbrush,banana,banana,chair,paintbrush,fem_plain_fem_sws,critical,2/23/2017,21:45,top_img,true,3089,1,1_2_1_1,word_2_word_3_word_1,far,banana,English_Speech,adult,megan,,,,,,,,,male
07XWx,25,16,fem_plain,fem_sws,2,banana,paintbrush,banana,banana,chair,paintbrush,fem_plain_fem_sws,critical,2/23/2017,21:45,right,true,3071,1,1_2_1_1,word_2_word_3_word_1,far,paintbrush,English_Speech,adult,megan,,,,,,,,,male
07XWx,25,16,fem_plain,fem_sws,3,banana,paintbrush,banana,banana,chair,paintbrush,fem_plain_fem_sws,critical,2/23/2017,21:45,top_img,true,2789,1,1_2_1_1,word_2_word_3_word_1,far,banana,English_Speech,adult,megan,,,,,,,,,male
