subject_id,trial_number,trial_id,plain,sws,instruction_number,sound1_item,sound2_item,sound3_item,top_image,left_image,right_image,sound_gender,trial_type,date_stamp,time_stamp,side_chosen,accuracy,rt,play_counter,order,pic_position,distance,chosen_pic,test_lang,testing_loc,tester,date_of_birth,ethnicity,native_lang,other_langs,parental_occ,dev_info,birth_order,num_siblings,gender
9Su7r,1,0,mal_plain,mal_sws,1,fireman,tractor,glasses,fireman,glasses,tractor,mal_plain_mal_sws,training,2/23/2017,19:00,top_img,true,1785,1,2_1_2_0,word_1_word_2_word_3,different,fireman,English_Speech,adult,megan,1995-02-07,British,English,None,,,,,male
9Su7r,1,0,mal_plain,mal_sws,2,fireman,tractor,glasses,fireman,glasses,tractor,mal_plain_mal_sws,training,2/23/2017,19:00,right,true,1914,1,2_1_2_0,word_1_word_2_word_3,different,tractor,English_Speech,adult,megan,1995-02-07,British,English,None,,,,,male
9Su7r,1,0,mal_plain,mal_sws,3,fireman,tractor,glasses,fireman,glasses,tractor,mal_plain_mal_sws,training,2/23/2017,19:00,right,false,1024,2,2_1_2_0,word_1_word_2_word_3,different,tractor,English_Speech,adult,megan,1995-02-07,British,English,None,,,,,male
9Su7r,2,18,mal_plain,mal_sws,1,camera,ball,ball,camera,raspberry,ball,mal_plain_mal_sws,critical,2/23/2017,19:00,top_img,true,1828,1,2_1_1_1,word_3_word_2_word_1,near,camera,English_Speech,adult,megan,1995-02-07,British,English,None,,,,,male
9Su7r,2,18,mal_plain,mal_sws,2,camera,ball,ball,camera,raspberry,ball,mal_plain_mal_sws,critical,2/23/2017,19:00,right,true,2699,1,2_1_1_1,word_3_word_2_word_1,near,ball,English_Speech,adult,megan,1995-02-07,British,English,None,,,,,male
9Su7r,2,18,mal_plain,mal_sws,3,camera,ball,ball,camera,raspberry,ball,mal_plain_mal_sws,critical,2/23/2017,19:00,right,true,2779,1,2_1_1_1,word_3_word_2_word_1,near,ball,English_Speech,adult,megan,1995-02-07,British,English,None,,,,,male
9Su7r,3,24,mal_plain,mal_sws,1,socks,sink,fish,sink,fish,socks,mal_plain_mal_sws,critical,2/23/2017,19:00,right,true,1983,1,1_2_2_0,word_1_word_2_word_3,different,socks,English_Speech,adult,megan,1995-02-07,British,English,None,,,,,male
9Su7r,3,24,mal_plain,mal_sws,2,socks,sink,fish,sink,fish,socks,mal_plain_mal_sws,critical,2/23/2017,19:00,top_img,true,2321,1,1_2_2_0,word_1_word_2_word_3,different,sink,English_Speech,adult,megan,1995-02-07,British,English,None,,,,,male
9Su7r,3,24,mal_plain,mal_sws,3,socks,sink,fish,sink,fish,socks,mal_plain_mal_sws,critical,2/23/2017,19:00,top_img,false,2910,1,1_2_2_0,word_1_word_2_word_3,different,sink,English_Speech,adult,megan,1995-02-07,British,English,None,,,,,male
9Su7r,4,3,mal_plain,mal_sws,1,nose,trousers,telephone,nose,telephone,trousers,mal_plain_mal_sws,critical,2/23/2017,19:00,top_img,true,2172,1,2_1_2_0,word_2_word_3_word_1,different,nose,English_Speech,adult,megan,1995-02-07,British,English,None,,,,,male
9Su7r,4,3,mal_plain,mal_sws,2,nose,trousers,telephone,nose,telephone,trousers,mal_plain_mal_sws,critical,2/23/2017,19:00,right,true,1775,1,2_1_2_0,word_2_word_3_word_1,different,trousers,English_Speech,adult,megan,1995-02-07,British,English,None,,,,,male
9Su7r,4,3,mal_plain,mal_sws,3,nose,trousers,telephone,nose,telephone,trousers,mal_plain_mal_sws,critical,2/23/2017,19:00,left,true,3219,1,2_1_2_0,word_2_word_3_word_1,different,telephone,English_Speech,adult,megan,1995-02-07,British,English,None,,,,,male
9Su7r,5,14,mal_plain,mal_sws,1,shoes,cheese,shoes,door,shoes,cheese,mal_plain_mal_sws,critical,2/23/2017,19:00,left,true,2183,1,1_2_1_1,word_3_word_2_word_1,far,shoes,English_Speech,adult,megan,1995-02-07,British,English,None,,,,,male
9Su7r,5,14,mal_plain,mal_sws,2,shoes,cheese,shoes,door,shoes,cheese,mal_plain_mal_sws,critical,2/23/2017,19:00,right,true,1981,1,1_2_1_1,word_3_word_2_word_1,far,cheese,English_Speech,adult,megan,1995-02-07,British,English,None,,,,,male
9Su7r,5,14,mal_plain,mal_sws,3,shoes,cheese,shoes,door,shoes,cheese,mal_plain_mal_sws,critical,2/23/2017,19:00,right,false,1981,1,1_2_1_1,word_3_word_2_word_1,far,cheese,English_Speech,adult,megan,1995-02-07,British,English,None,,,,,male
9Su7r,6,17,mal_plain,mal_sws,1,ambulance,hand,hand,hand,cake,ambulance,mal_plain_mal_sws,critical,2/23/2017,19:00,right,true,2023,1,2_1_1_1,word_3_word_1_word_2,near,ambulance,English_Speech,adult,megan,1995-02-07,British,English,None,,,,,male
9Su7r,6,17,mal_plain,mal_sws,2,ambulance,hand,hand,hand,cake,ambulance,mal_plain_mal_sws,critical,2/23/2017,19:00,top_img,true,2177,1,2_1_1_1,word_3_word_1_word_2,near,hand,English_Speech,adult,megan,1995-02-07,British,English,None,,,,,male
9Su7r,6,17,mal_plain,mal_sws,3,ambulance,hand,hand,hand,cake,ambulance,mal_plain_mal_sws,critical,2/23/2017,19:00,top_img,true,2586,1,2_1_1_1,word_3_word_1_word_2,near,hand,English_Speech,adult,megan,1995-02-07,British,English,None,,,,,male
9Su7r,7,15,mal_plain,mal_sws,1,beans,slide,slide,pencil,slide,beans,mal_plain_mal_sws,critical,2/23/2017,19:00,right,true,2133,1,1_2_2_1,word_2_word_1_word_3,near,beans,English_Speech,adult,megan,1995-02-07,British,English,None,,,,,male
9Su7r,7,15,mal_plain,mal_sws,2,beans,slide,slide,pencil,slide,beans,mal_plain_mal_sws,critical,2/23/2017,19:00,left,true,2829,1,1_2_2_1,word_2_word_1_word_3,near,slide,English_Speech,adult,megan,1995-02-07,British,English,None,,,,,male
9Su7r,7,15,mal_plain,mal_sws,3,beans,slide,slide,pencil,slide,beans,mal_plain_mal_sws,critical,2/23/2017,19:00,left,true,2446,1,1_2_2_1,word_2_word_1_word_3,near,slide,English_Speech,adult,megan,1995-02-07,British,English,None,,,,,male
9Su7r,8,23,mal_plain,mal_sws,1,table,bath,table,table,bath,teddy_bear,mal_plain_mal_sws,critical,2/23/2017,19:00,top_img,true,1870,1,1_2_1_1,word_3_word_1_word_2,far,table,English_Speech,adult,megan,1995-02-07,British,English,None,,,,,male
9Su7r,8,23,mal_plain,mal_sws,2,table,bath,table,table,bath,teddy_bear,mal_plain_mal_sws,critical,2/23/2017,19:00,left,true,2118,1,1_2_1_1,word_3_word_1_word_2,far,bath,English_Speech,adult,megan,1995-02-07,British,English,None,,,,,male
9Su7r,8,23,mal_plain,mal_sws,3,table,bath,table,table,bath,teddy_bear,mal_plain_mal_sws,critical,2/23/2017,19:00,top_img,true,1840,1,1_2_1_1,word_3_word_1_word_2,far,table,English_Speech,adult,megan,1995-02-07,British,English,None,,,,,male
9Su7r,9,7,mal_plain,mal_sws,1,lolly,horse,cat,lolly,horse,cat,mal_plain_mal_sws,critical,2/23/2017,19:00,top_img,true,2484,1,2_1_1_0,word_1_word_2_word_3,different,lolly,English_Speech,adult,megan,1995-02-07,British,English,None,,,,,male
9Su7r,9,7,mal_plain,mal_sws,2,lolly,horse,cat,lolly,horse,cat,mal_plain_mal_sws,critical,2/23/2017,19:00,left,true,2574,1,2_1_1_0,word_1_word_2_word_3,different,horse,English_Speech,adult,megan,1995-02-07,British,English,None,,,,,male
9Su7r,9,7,mal_plain,mal_sws,3,lolly,horse,cat,lolly,horse,cat,mal_plain_mal_sws,critical,2/23/2017,19:00,right,true,2975,1,2_1_1_0,word_1_word_2_word_3,different,cat,English_Speech,adult,megan,1995-02-07,British,English,None,,,,,male
9Su7r,10,22,mal_plain,mal_sws,1,dog,doctor,bike,doctor,bike,dog,mal_plain_mal_sws,critical,2/23/2017,19:00,right,true,1590,1,2_1_1_0,word_3_word_1_word_2,different,dog,English_Speech,adult,megan,1995-02-07,British,English,None,,,,,male
9Su7r,10,22,mal_plain,mal_sws,2,dog,doctor,bike,doctor,bike,dog,mal_plain_mal_sws,critical,2/23/2017,19:00,top_img,true,1694,1,2_1_1_0,word_3_word_1_word_2,different,doctor,English_Speech,adult,megan,1995-02-07,British,English,None,,,,,male
9Su7r,10,22,mal_plain,mal_sws,3,dog,doctor,bike,doctor,bike,dog,mal_plain_mal_sws,critical,2/23/2017,19:00,left,true,2861,1,2_1_1_0,word_3_word_1_word_2,different,bike,English_Speech,adult,megan,1995-02-07,British,English,None,,,,,male
9Su7r,11,1,mal_plain,mal_sws,1,train,baby,baby,spoon,train,baby,mal_plain_mal_sws,critical,2/23/2017,19:00,left,true,1821,1,2_1_1_1,word_1_word_3_word_2,near,train,English_Speech,adult,megan,1995-02-07,British,English,None,,,,,male
9Su7r,11,1,mal_plain,mal_sws,2,train,baby,baby,spoon,train,baby,mal_plain_mal_sws,critical,2/23/2017,19:00,right,true,1607,1,2_1_1_1,word_1_word_3_word_2,near,baby,English_Speech,adult,megan,1995-02-07,British,English,None,,,,,male
9Su7r,11,1,mal_plain,mal_sws,3,train,baby,baby,spoon,train,baby,mal_plain_mal_sws,critical,2/23/2017,19:00,right,true,1813,1,2_1_1_1,word_1_word_3_word_2,near,baby,English_Speech,adult,megan,1995-02-07,British,English,None,,,,,male
9Su7r,12,11,mal_plain,mal_sws,1,cow,lorry,lorry,lorry,cow,book,mal_plain_mal_sws,critical,2/23/2017,19:00,left,true,3193,1,1_2_2_1,word_2_word_3_word_1,near,cow,English_Speech,adult,megan,1995-02-07,British,English,None,,,,,male
9Su7r,12,11,mal_plain,mal_sws,2,cow,lorry,lorry,lorry,cow,book,mal_plain_mal_sws,critical,2/23/2017,19:00,top_img,true,1814,1,1_2_2_1,word_2_word_3_word_1,near,lorry,English_Speech,adult,megan,1995-02-07,British,English,None,,,,,male
9Su7r,12,11,mal_plain,mal_sws,3,cow,lorry,lorry,lorry,cow,book,mal_plain_mal_sws,critical,2/23/2017,19:00,top_img,true,1910,1,1_2_2_1,word_2_word_3_word_1,near,lorry,English_Speech,adult,megan,1995-02-07,British,English,None,,,,,male
9Su7r,13,19,mal_plain,mal_sws,1,tree,santa,building_blocks,santa,building_blocks,tree,mal_plain_mal_sws,critical,2/23/2017,19:00,right,true,1678,1,2_1_1_0,word_1_word_2_word_3,different,tree,English_Speech,adult,megan,1995-02-07,British,English,None,,,,,male
9Su7r,13,19,mal_plain,mal_sws,2,tree,santa,building_blocks,santa,building_blocks,tree,mal_plain_mal_sws,critical,2/23/2017,19:00,top_img,true,2073,1,2_1_1_0,word_1_word_2_word_3,different,santa,English_Speech,adult,megan,1995-02-07,British,English,None,,,,,male
9Su7r,13,19,mal_plain,mal_sws,3,tree,santa,building_blocks,santa,building_blocks,tree,mal_plain_mal_sws,critical,2/23/2017,19:00,left,true,2718,1,2_1_1_0,word_1_word_2_word_3,different,building_blocks,English_Speech,adult,megan,1995-02-07,British,English,None,,,,,male
9Su7r,14,20,mal_plain,mal_sws,1,rabbit,apple,jumper,jumper,rabbit,apple,mal_plain_mal_sws,critical,2/23/2017,19:00,left,true,1924,1,2_1_1_0,word_1_word_2_word_3,different,rabbit,English_Speech,adult,megan,1995-02-07,British,English,None,,,,,male
9Su7r,14,20,mal_plain,mal_sws,2,rabbit,apple,jumper,jumper,rabbit,apple,mal_plain_mal_sws,critical,2/23/2017,19:00,right,true,2254,1,2_1_1_0,word_1_word_2_word_3,different,apple,English_Speech,adult,megan,1995-02-07,British,English,None,,,,,male
9Su7r,14,20,mal_plain,mal_sws,3,rabbit,apple,jumper,jumper,rabbit,apple,mal_plain_mal_sws,critical,2/23/2017,19:00,top_img,true,1837,1,2_1_1_0,word_1_word_2_word_3,different,jumper,English_Speech,adult,megan,1995-02-07,British,English,None,,,,,male
9Su7r,15,9,mal_plain,mal_sws,1,grapes,window,window,window,pizza,grapes,mal_plain_mal_sws,critical,2/23/2017,19:00,right,true,1797,1,1_2_2_1,word_2_word_1_word_3,near,grapes,English_Speech,adult,megan,1995-02-07,British,English,None,,,,,male
9Su7r,15,9,mal_plain,mal_sws,2,grapes,window,window,window,pizza,grapes,mal_plain_mal_sws,critical,2/23/2017,19:00,top_img,true,1520,1,1_2_2_1,word_2_word_1_word_3,near,window,English_Speech,adult,megan,1995-02-07,British,English,None,,,,,male
9Su7r,15,9,mal_plain,mal_sws,3,grapes,window,window,window,pizza,grapes,mal_plain_mal_sws,critical,2/23/2017,19:00,top_img,true,1630,1,1_2_2_1,word_2_word_1_word_3,near,window,English_Speech,adult,megan,1995-02-07,British,English,None,,,,,male
9Su7r,16,21,mal_plain,mal_sws,1,frog,eye,sheep,eye,sheep,frog,mal_plain_mal_sws,critical,2/23/2017,19:00,right,true,2960,1,2_1_1_0,word_3_word_2_word_1,different,frog,English_Speech,adult,megan,1995-02-07,British,English,None,,,,,male
9Su7r,16,21,mal_plain,mal_sws,2,frog,eye,sheep,eye,sheep,frog,mal_plain_mal_sws,critical,2/23/2017,19:00,top_img,true,1636,1,2_1_1_0,word_3_word_2_word_1,different,eye,English_Speech,adult,megan,1995-02-07,British,English,None,,,,,male
9Su7r,16,21,mal_plain,mal_sws,3,frog,eye,sheep,eye,sheep,frog,mal_plain_mal_sws,critical,2/23/2017,19:00,left,true,2030,1,2_1_1_0,word_3_word_2_word_1,different,sheep,English_Speech,adult,megan,1995-02-07,British,English,None,,,,,male
9Su7r,17,13,mal_plain,mal_sws,1,toothbrush,airplane,toothbrush,airplane,bread,toothbrush,mal_plain_mal_sws,critical,2/23/2017,19:00,right,true,1529,1,1_2_1_1,word_2_word_3_word_1,far,toothbrush,English_Speech,adult,megan,1995-02-07,British,English,None,,,,,male
9Su7r,17,13,mal_plain,mal_sws,2,toothbrush,airplane,toothbrush,airplane,bread,toothbrush,mal_plain_mal_sws,critical,2/23/2017,19:00,top_img,true,2224,1,1_2_1_1,word_2_word_3_word_1,far,airplane,English_Speech,adult,megan,1995-02-07,British,English,None,,,,,male
9Su7r,17,13,mal_plain,mal_sws,3,toothbrush,airplane,toothbrush,airplane,bread,toothbrush,mal_plain_mal_sws,critical,2/23/2017,19:00,right,true,1998,1,1_2_1_1,word_2_word_3_word_1,far,toothbrush,English_Speech,adult,megan,1995-02-07,British,English,None,,,,,male
9Su7r,18,16,mal_plain,mal_sws,1,banana,chair,paintbrush,banana,chair,paintbrush,mal_plain_mal_sws,critical,2/23/2017,19:00,top_img,true,1742,1,1_2_2_0,word_2_word_3_word_1,different,banana,English_Speech,adult,megan,1995-02-07,British,English,None,,,,,male
9Su7r,18,16,mal_plain,mal_sws,2,banana,chair,paintbrush,banana,chair,paintbrush,mal_plain_mal_sws,critical,2/23/2017,19:00,left,true,2840,1,1_2_2_0,word_2_word_3_word_1,different,chair,English_Speech,adult,megan,1995-02-07,British,English,None,,,,,male
9Su7r,18,16,mal_plain,mal_sws,3,banana,chair,paintbrush,banana,chair,paintbrush,mal_plain_mal_sws,critical,2/23/2017,19:00,right,true,2534,1,1_2_2_0,word_2_word_3_word_1,different,paintbrush,English_Speech,adult,megan,1995-02-07,British,English,None,,,,,male
9Su7r,19,12,mal_plain,mal_sws,1,yoghurt,gloves,foot,foot,gloves,yoghurt,mal_plain_mal_sws,critical,2/23/2017,19:00,right,true,2039,1,1_2_2_0,word_1_word_3_word_2,different,yoghurt,English_Speech,adult,megan,1995-02-07,British,English,None,,,,,male
9Su7r,19,12,mal_plain,mal_sws,2,yoghurt,gloves,foot,foot,gloves,yoghurt,mal_plain_mal_sws,critical,2/23/2017,19:00,left,true,2750,1,1_2_2_0,word_1_word_3_word_2,different,gloves,English_Speech,adult,megan,1995-02-07,British,English,None,,,,,male
9Su7r,19,12,mal_plain,mal_sws,3,yoghurt,gloves,foot,foot,gloves,yoghurt,mal_plain_mal_sws,critical,2/23/2017,19:00,top_img,true,2466,1,1_2_2_0,word_1_word_3_word_2,different,foot,English_Speech,adult,megan,1995-02-07,British,English,None,,,,,male
9Su7r,20,8,mal_plain,mal_sws,1,wellyboots,fire_engine,ear,ear,fire_engine,wellyboots,mal_plain_mal_sws,critical,2/23/2017,19:00,right,true,2204,1,2_1_2_0,word_3_word_2_word_1,different,wellyboots,English_Speech,adult,megan,1995-02-07,British,English,None,,,,,male
9Su7r,20,8,mal_plain,mal_sws,2,wellyboots,fire_engine,ear,ear,fire_engine,wellyboots,mal_plain_mal_sws,critical,2/23/2017,19:00,left,true,2420,1,2_1_2_0,word_3_word_2_word_1,different,fire_engine,English_Speech,adult,megan,1995-02-07,British,English,None,,,,,male
9Su7r,20,8,mal_plain,mal_sws,3,wellyboots,fire_engine,ear,ear,fire_engine,wellyboots,mal_plain_mal_sws,critical,2/23/2017,19:00,top_img,true,1830,1,2_1_2_0,word_3_word_2_word_1,different,ear,English_Speech,adult,megan,1995-02-07,British,English,None,,,,,male
9Su7r,21,5,mal_plain,mal_sws,1,car,mouth,orange,car,mouth,orange,mal_plain_mal_sws,critical,2/23/2017,19:00,top_img,true,1646,1,2_1_1_0,word_2_word_3_word_1,different,car,English_Speech,adult,megan,1995-02-07,British,English,None,,,,,male
9Su7r,21,5,mal_plain,mal_sws,2,car,mouth,orange,car,mouth,orange,mal_plain_mal_sws,critical,2/23/2017,19:00,left,true,1558,1,2_1_1_0,word_2_word_3_word_1,different,mouth,English_Speech,adult,megan,1995-02-07,British,English,None,,,,,male
9Su7r,21,5,mal_plain,mal_sws,3,car,mouth,orange,car,mouth,orange,mal_plain_mal_sws,critical,2/23/2017,19:00,right,true,2673,1,2_1_1_0,word_2_word_3_word_1,different,orange,English_Speech,adult,megan,1995-02-07,British,English,None,,,,,male
9Su7r,22,4,mal_plain,mal_sws,1,flower,coat,flower,strawberry,flower,coat,mal_plain_mal_sws,critical,2/23/2017,19:00,left,true,1894,1,2_1_2_1,word_2_word_3_word_1,far,flower,English_Speech,adult,megan,1995-02-07,British,English,None,,,,,male
9Su7r,22,4,mal_plain,mal_sws,2,flower,coat,flower,strawberry,flower,coat,mal_plain_mal_sws,critical,2/23/2017,19:00,right,true,2082,1,2_1_2_1,word_2_word_3_word_1,far,coat,English_Speech,adult,megan,1995-02-07,British,English,None,,,,,male
9Su7r,22,4,mal_plain,mal_sws,3,flower,coat,flower,strawberry,flower,coat,mal_plain_mal_sws,critical,2/23/2017,19:00,left,true,1774,1,2_1_2_1,word_2_word_3_word_1,far,flower,English_Speech,adult,megan,1995-02-07,British,English,None,,,,,male
9Su7r,23,2,mal_plain,mal_sws,1,fork,chicken,fork,fork,bed,chicken,mal_plain_mal_sws,critical,2/23/2017,19:00,top_img,true,1494,1,2_1_2_1,word_3_word_1_word_2,far,fork,English_Speech,adult,megan,1995-02-07,British,English,None,,,,,male
9Su7r,23,2,mal_plain,mal_sws,2,fork,chicken,fork,fork,bed,chicken,mal_plain_mal_sws,critical,2/23/2017,19:00,right,true,2469,1,2_1_2_1,word_3_word_1_word_2,far,chicken,English_Speech,adult,megan,1995-02-07,British,English,None,,,,,male
9Su7r,23,2,mal_plain,mal_sws,3,fork,chicken,fork,fork,bed,chicken,mal_plain_mal_sws,critical,2/23/2017,19:00,top_img,true,1989,1,2_1_2_1,word_3_word_1_word_2,far,fork,English_Speech,adult,megan,1995-02-07,British,English,None,,,,,male
9Su7r,24,10,mal_plain,mal_sws,1,tshirt,pig,tshirt,pig,hat,tshirt,mal_plain_mal_sws,critical,2/23/2017,19:00,right,true,2453,1,2_1_2_1,word_1_word_3_word_2,far,tshirt,English_Speech,adult,megan,1995-02-07,British,English,None,,,,,male
9Su7r,24,10,mal_plain,mal_sws,2,tshirt,pig,tshirt,pig,hat,tshirt,mal_plain_mal_sws,critical,2/23/2017,19:00,top_img,true,1605,1,2_1_2_1,word_1_word_3_word_2,far,pig,English_Speech,adult,megan,1995-02-07,British,English,None,,,,,male
9Su7r,24,10,mal_plain,mal_sws,3,tshirt,pig,tshirt,pig,hat,tshirt,mal_plain_mal_sws,critical,2/23/2017,19:00,right,true,2414,1,2_1_2_1,word_1_word_3_word_2,far,tshirt,English_Speech,adult,megan,1995-02-07,British,English,None,,,,,male
9Su7r,25,6,mal_plain,mal_sws,1,peas,bird,peas,bird,peas,carrot,mal_plain_mal_sws,critical,2/23/2017,19:00,left,true,2565,1,1_2_1_1,word_1_word_2_word_3,far,peas,English_Speech,adult,megan,1995-02-07,British,English,None,,,,,male
9Su7r,25,6,mal_plain,mal_sws,2,peas,bird,peas,bird,peas,carrot,mal_plain_mal_sws,critical,2/23/2017,19:00,top_img,true,1817,1,1_2_1_1,word_1_word_2_word_3,far,bird,English_Speech,adult,megan,1995-02-07,British,English,None,,,,,male
9Su7r,25,6,mal_plain,mal_sws,3,peas,bird,peas,bird,peas,carrot,mal_plain_mal_sws,critical,2/23/2017,19:00,left,true,1991,1,1_2_1_1,word_1_word_2_word_3,far,peas,English_Speech,adult,megan,1995-02-07,British,English,None,,,,,male
