subject_id,trial_number,trial_id,plain,sws,instruction_number,sound1_item,sound2_item,sound3_item,top_image,left_image,right_image,sound_gender,trial_type,date_stamp,time_stamp,side_chosen,accuracy,rt,play_counter,order,pic_position,distance,chosen_pic,test_lang,testing_loc,tester,date_of_birth,ethnicity,native_lang,other_langs,parental_occ,dev_info,birth_order,num_siblings,gender
aoAN6,1,0,mal_plain,fem_sws,1,tractor,fireman,glasses,fireman,glasses,tractor,mal_plain_fem_sws,training,1/10/2017,21:00,right,true,2346,2,1_2_2_0,word_1_word_2_word_3,different,tractor,English_Speech,adult,megan,1990-01-18,Scottish,English,N/a,Labourer/Teacher,N/a,[,1,male
aoAN6,1,0,mal_plain,fem_sws,2,tractor,fireman,glasses,fireman,glasses,tractor,mal_plain_fem_sws,training,1/10/2017,21:00,top_img,true,2107,3,1_2_2_0,word_1_word_2_word_3,different,fireman,English_Speech,adult,megan,1990-01-18,Scottish,English,N/a,Labourer/Teacher,N/a,[,1,male
aoAN6,1,0,mal_plain,fem_sws,3,tractor,fireman,glasses,fireman,glasses,tractor,mal_plain_fem_sws,training,1/10/2017,21:00,left,true,10095,2,1_2_2_0,word_1_word_2_word_3,different,glasses,English_Speech,adult,megan,1990-01-18,Scottish,English,N/a,Labourer/Teacher,N/a,[,1,male
aoAN6,2,18,mal_plain,fem_sws,1,ball,raspberry,camera,camera,raspberry,ball,mal_plain_fem_sws,critical,1/10/2017,21:00,right,true,3179,2,1_2_2_0,word_3_word_2_word_1,different,ball,English_Speech,adult,megan,1990-01-18,Scottish,English,N/a,Labourer/Teacher,N/a,[,1,male
aoAN6,2,18,mal_plain,fem_sws,2,ball,raspberry,camera,camera,raspberry,ball,mal_plain_fem_sws,critical,1/10/2017,21:00,left,true,2512,2,1_2_2_0,word_3_word_2_word_1,different,raspberry,English_Speech,adult,megan,1990-01-18,Scottish,English,N/a,Labourer/Teacher,N/a,[,1,male
aoAN6,2,18,mal_plain,fem_sws,3,ball,raspberry,camera,camera,raspberry,ball,mal_plain_fem_sws,critical,1/10/2017,21:00,top_img,true,3107,2,1_2_2_0,word_3_word_2_word_1,different,camera,English_Speech,adult,megan,1990-01-18,Scottish,English,N/a,Labourer/Teacher,N/a,[,1,male
aoAN6,3,10,mal_plain,fem_sws,1,tshirt,hat,pig,pig,hat,tshirt,mal_plain_fem_sws,critical,1/10/2017,21:00,right,true,2995,2,2_1_1_0,word_1_word_3_word_2,different,tshirt,English_Speech,adult,megan,1990-01-18,Scottish,English,N/a,Labourer/Teacher,N/a,[,1,male
aoAN6,3,10,mal_plain,fem_sws,2,tshirt,hat,pig,pig,hat,tshirt,mal_plain_fem_sws,critical,1/10/2017,21:00,left,true,2223,1,2_1_1_0,word_1_word_3_word_2,different,hat,English_Speech,adult,megan,1990-01-18,Scottish,English,N/a,Labourer/Teacher,N/a,[,1,male
aoAN6,3,10,mal_plain,fem_sws,3,tshirt,hat,pig,pig,hat,tshirt,mal_plain_fem_sws,critical,1/10/2017,21:00,top_img,true,1973,2,2_1_1_0,word_1_word_3_word_2,different,pig,English_Speech,adult,megan,1990-01-18,Scottish,English,N/a,Labourer/Teacher,N/a,[,1,male
aoAN6,4,15,mal_plain,fem_sws,1,pencil,slide,pencil,slide,pencil,beans,mal_plain_fem_sws,critical,1/10/2017,21:00,left,true,2016,2,2_1_2_1,word_1_word_2_word_3,far,pencil,English_Speech,adult,megan,1990-01-18,Scottish,English,N/a,Labourer/Teacher,N/a,[,1,male
aoAN6,4,15,mal_plain,fem_sws,2,pencil,slide,pencil,slide,pencil,beans,mal_plain_fem_sws,critical,1/10/2017,21:00,top_img,true,2554,1,2_1_2_1,word_1_word_2_word_3,far,slide,English_Speech,adult,megan,1990-01-18,Scottish,English,N/a,Labourer/Teacher,N/a,[,1,male
aoAN6,4,15,mal_plain,fem_sws,3,pencil,slide,pencil,slide,pencil,beans,mal_plain_fem_sws,critical,1/10/2017,21:00,right,false,2321,2,2_1_2_1,word_1_word_2_word_3,far,beans,English_Speech,adult,megan,1990-01-18,Scottish,English,N/a,Labourer/Teacher,N/a,[,1,male
aoAN6,5,14,mal_plain,fem_sws,1,door,shoes,cheese,cheese,door,shoes,mal_plain_fem_sws,critical,1/10/2017,21:00,left,true,2221,2,2_1_1_0,word_1_word_3_word_2,different,door,English_Speech,adult,megan,1990-01-18,Scottish,English,N/a,Labourer/Teacher,N/a,[,1,male
aoAN6,5,14,mal_plain,fem_sws,2,door,shoes,cheese,cheese,door,shoes,mal_plain_fem_sws,critical,1/10/2017,21:00,right,true,2320,2,2_1_1_0,word_1_word_3_word_2,different,shoes,English_Speech,adult,megan,1990-01-18,Scottish,English,N/a,Labourer/Teacher,N/a,[,1,male
aoAN6,5,14,mal_plain,fem_sws,3,door,shoes,cheese,cheese,door,shoes,mal_plain_fem_sws,critical,1/10/2017,21:00,top_img,true,1937,2,2_1_1_0,word_1_word_3_word_2,different,cheese,English_Speech,adult,megan,1990-01-18,Scottish,English,N/a,Labourer/Teacher,N/a,[,1,male
aoAN6,6,11,mal_plain,fem_sws,1,book,lorry,book,book,lorry,cow,mal_plain_fem_sws,critical,1/10/2017,21:00,top_img,true,2008,2,1_2_1_1,word_1_word_2_word_3,far,book,English_Speech,adult,megan,1990-01-18,Scottish,English,N/a,Labourer/Teacher,N/a,[,1,male
aoAN6,6,11,mal_plain,fem_sws,2,book,lorry,book,book,lorry,cow,mal_plain_fem_sws,critical,1/10/2017,21:00,left,true,1819,2,1_2_1_1,word_1_word_2_word_3,far,lorry,English_Speech,adult,megan,1990-01-18,Scottish,English,N/a,Labourer/Teacher,N/a,[,1,male
aoAN6,6,11,mal_plain,fem_sws,3,book,lorry,book,book,lorry,cow,mal_plain_fem_sws,critical,1/10/2017,21:00,right,false,2449,2,1_2_1_1,word_1_word_2_word_3,far,cow,English_Speech,adult,megan,1990-01-18,Scottish,English,N/a,Labourer/Teacher,N/a,[,1,male
aoAN6,7,2,mal_plain,fem_sws,1,chicken,bed,bed,bed,chicken,fork,mal_plain_fem_sws,critical,1/10/2017,21:00,left,true,3286,2,1_2_2_1,word_1_word_2_word_3,near,chicken,English_Speech,adult,megan,1990-01-18,Scottish,English,N/a,Labourer/Teacher,N/a,[,1,male
aoAN6,7,2,mal_plain,fem_sws,2,chicken,bed,bed,bed,chicken,fork,mal_plain_fem_sws,critical,1/10/2017,21:00,top_img,true,2565,2,1_2_2_1,word_1_word_2_word_3,near,bed,English_Speech,adult,megan,1990-01-18,Scottish,English,N/a,Labourer/Teacher,N/a,[,1,male
aoAN6,7,2,mal_plain,fem_sws,3,chicken,bed,bed,bed,chicken,fork,mal_plain_fem_sws,critical,1/10/2017,21:00,right,false,5029,2,1_2_2_1,word_1_word_2_word_3,near,fork,English_Speech,adult,megan,1990-01-18,Scottish,English,N/a,Labourer/Teacher,N/a,[,1,male
aoAN6,8,23,mal_plain,fem_sws,1,bath,table,teddy_bear,teddy_bear,bath,table,mal_plain_fem_sws,critical,1/10/2017,21:00,left,true,2116,2,2_1_2_0,word_2_word_1_word_3,different,bath,English_Speech,adult,megan,1990-01-18,Scottish,English,N/a,Labourer/Teacher,N/a,[,1,male
aoAN6,8,23,mal_plain,fem_sws,2,bath,table,teddy_bear,teddy_bear,bath,table,mal_plain_fem_sws,critical,1/10/2017,21:00,right,true,1884,2,2_1_2_0,word_2_word_1_word_3,different,table,English_Speech,adult,megan,1990-01-18,Scottish,English,N/a,Labourer/Teacher,N/a,[,1,male
aoAN6,8,23,mal_plain,fem_sws,3,bath,table,teddy_bear,teddy_bear,bath,table,mal_plain_fem_sws,critical,1/10/2017,21:00,top_img,true,4532,2,2_1_2_0,word_2_word_1_word_3,different,teddy_bear,English_Speech,adult,megan,1990-01-18,Scottish,English,N/a,Labourer/Teacher,N/a,[,1,male
aoAN6,9,21,mal_plain,fem_sws,1,sheep,eye,eye,sheep,frog,eye,mal_plain_fem_sws,critical,1/10/2017,21:00,top_img,true,1740,4,2_1_1_1,word_2_word_1_word_3,near,sheep,English_Speech,adult,megan,1990-01-18,Scottish,English,N/a,Labourer/Teacher,N/a,[,1,male
aoAN6,9,21,mal_plain,fem_sws,2,sheep,eye,eye,sheep,frog,eye,mal_plain_fem_sws,critical,1/10/2017,21:00,right,true,2039,2,2_1_1_1,word_2_word_1_word_3,near,eye,English_Speech,adult,megan,1990-01-18,Scottish,English,N/a,Labourer/Teacher,N/a,[,1,male
aoAN6,9,21,mal_plain,fem_sws,3,sheep,eye,eye,sheep,frog,eye,mal_plain_fem_sws,critical,1/10/2017,21:00,left,false,3329,2,2_1_1_1,word_2_word_1_word_3,near,frog,English_Speech,adult,megan,1990-01-18,Scottish,English,N/a,Labourer/Teacher,N/a,[,1,male
aoAN6,10,19,mal_plain,fem_sws,1,tree,santa,building_blocks,santa,building_blocks,tree,mal_plain_fem_sws,critical,1/10/2017,21:00,right,true,2390,2,2_1_1_0,word_1_word_2_word_3,different,tree,English_Speech,adult,megan,1990-01-18,Scottish,English,N/a,Labourer/Teacher,N/a,[,1,male
aoAN6,10,19,mal_plain,fem_sws,2,tree,santa,building_blocks,santa,building_blocks,tree,mal_plain_fem_sws,critical,1/10/2017,21:00,top_img,true,2029,2,2_1_1_0,word_1_word_2_word_3,different,santa,English_Speech,adult,megan,1990-01-18,Scottish,English,N/a,Labourer/Teacher,N/a,[,1,male
aoAN6,10,19,mal_plain,fem_sws,3,tree,santa,building_blocks,santa,building_blocks,tree,mal_plain_fem_sws,critical,1/10/2017,21:00,left,true,4321,2,2_1_1_0,word_1_word_2_word_3,different,building_blocks,English_Speech,adult,megan,1990-01-18,Scottish,English,N/a,Labourer/Teacher,N/a,[,1,male
aoAN6,11,7,mal_plain,fem_sws,1,horse,cat,horse,cat,horse,lolly,mal_plain_fem_sws,critical,1/10/2017,21:00,left,true,2209,2,1_2_1_1,word_3_word_2_word_1,far,horse,English_Speech,adult,megan,1990-01-18,Scottish,English,N/a,Labourer/Teacher,N/a,[,1,male
aoAN6,11,7,mal_plain,fem_sws,2,horse,cat,horse,cat,horse,lolly,mal_plain_fem_sws,critical,1/10/2017,21:00,top_img,true,2196,2,1_2_1_1,word_3_word_2_word_1,far,cat,English_Speech,adult,megan,1990-01-18,Scottish,English,N/a,Labourer/Teacher,N/a,[,1,male
aoAN6,11,7,mal_plain,fem_sws,3,horse,cat,horse,cat,horse,lolly,mal_plain_fem_sws,critical,1/10/2017,21:00,right,false,2093,2,1_2_1_1,word_3_word_2_word_1,far,lolly,English_Speech,adult,megan,1990-01-18,Scottish,English,N/a,Labourer/Teacher,N/a,[,1,male
aoAN6,12,9,mal_plain,fem_sws,1,pizza,grapes,window,grapes,pizza,window,mal_plain_fem_sws,critical,1/10/2017,21:00,left,true,2377,2,2_1_1_0,word_3_word_1_word_2,different,pizza,English_Speech,adult,megan,1990-01-18,Scottish,English,N/a,Labourer/Teacher,N/a,[,1,male
aoAN6,12,9,mal_plain,fem_sws,2,pizza,grapes,window,grapes,pizza,window,mal_plain_fem_sws,critical,1/10/2017,21:00,top_img,true,1993,2,2_1_1_0,word_3_word_1_word_2,different,grapes,English_Speech,adult,megan,1990-01-18,Scottish,English,N/a,Labourer/Teacher,N/a,[,1,male
aoAN6,12,9,mal_plain,fem_sws,3,pizza,grapes,window,grapes,pizza,window,mal_plain_fem_sws,critical,1/10/2017,21:00,right,true,2784,2,2_1_1_0,word_3_word_1_word_2,different,window,English_Speech,adult,megan,1990-01-18,Scottish,English,N/a,Labourer/Teacher,N/a,[,1,male
aoAN6,13,3,mal_plain,fem_sws,1,telephone,trousers,nose,nose,trousers,telephone,mal_plain_fem_sws,critical,1/10/2017,21:00,right,true,2706,2,1_2_2_0,word_2_word_1_word_3,different,telephone,English_Speech,adult,megan,1990-01-18,Scottish,English,N/a,Labourer/Teacher,N/a,[,1,male
aoAN6,13,3,mal_plain,fem_sws,2,telephone,trousers,nose,nose,trousers,telephone,mal_plain_fem_sws,critical,1/10/2017,21:00,left,true,2077,2,1_2_2_0,word_2_word_1_word_3,different,trousers,English_Speech,adult,megan,1990-01-18,Scottish,English,N/a,Labourer/Teacher,N/a,[,1,male
aoAN6,13,3,mal_plain,fem_sws,3,telephone,trousers,nose,nose,trousers,telephone,mal_plain_fem_sws,critical,1/10/2017,21:00,top_img,true,2538,2,1_2_2_0,word_2_word_1_word_3,different,nose,English_Speech,adult,megan,1990-01-18,Scottish,English,N/a,Labourer/Teacher,N/a,[,1,male
aoAN6,14,1,mal_plain,fem_sws,1,train,spoon,train,baby,spoon,train,mal_plain_fem_sws,critical,1/10/2017,21:00,right,true,2083,1,1_2_1_1,word_2_word_1_word_3,far,train,English_Speech,adult,megan,1990-01-18,Scottish,English,N/a,Labourer/Teacher,N/a,[,1,male
aoAN6,14,1,mal_plain,fem_sws,2,train,spoon,train,baby,spoon,train,mal_plain_fem_sws,critical,1/10/2017,21:00,left,true,1862,2,1_2_1_1,word_2_word_1_word_3,far,spoon,English_Speech,adult,megan,1990-01-18,Scottish,English,N/a,Labourer/Teacher,N/a,[,1,male
aoAN6,14,1,mal_plain,fem_sws,3,train,spoon,train,baby,spoon,train,mal_plain_fem_sws,critical,1/10/2017,21:00,right,true,3411,2,1_2_1_1,word_2_word_1_word_3,far,train,English_Speech,adult,megan,1990-01-18,Scottish,English,N/a,Labourer/Teacher,N/a,[,1,male
aoAN6,15,8,mal_plain,fem_sws,1,wellyboots,fire_engine,fire_engine,ear,fire_engine,wellyboots,mal_plain_fem_sws,critical,1/10/2017,21:00,right,true,1976,2,1_2_2_1,word_3_word_2_word_1,near,wellyboots,English_Speech,adult,megan,1990-01-18,Scottish,English,N/a,Labourer/Teacher,N/a,[,1,male
aoAN6,15,8,mal_plain,fem_sws,2,wellyboots,fire_engine,fire_engine,ear,fire_engine,wellyboots,mal_plain_fem_sws,critical,1/10/2017,21:00,left,true,2437,2,1_2_2_1,word_3_word_2_word_1,near,fire_engine,English_Speech,adult,megan,1990-01-18,Scottish,English,N/a,Labourer/Teacher,N/a,[,1,male
aoAN6,15,8,mal_plain,fem_sws,3,wellyboots,fire_engine,fire_engine,ear,fire_engine,wellyboots,mal_plain_fem_sws,critical,1/10/2017,21:00,left,true,3345,2,1_2_2_1,word_3_word_2_word_1,near,fire_engine,English_Speech,adult,megan,1990-01-18,Scottish,English,N/a,Labourer/Teacher,N/a,[,1,male
aoAN6,16,17,mal_plain,fem_sws,1,ambulance,hand,ambulance,hand,cake,ambulance,mal_plain_fem_sws,critical,1/10/2017,21:00,right,true,1873,2,2_1_2_1,word_3_word_1_word_2,far,ambulance,English_Speech,adult,megan,1990-01-18,Scottish,English,N/a,Labourer/Teacher,N/a,[,1,male
aoAN6,16,17,mal_plain,fem_sws,2,ambulance,hand,ambulance,hand,cake,ambulance,mal_plain_fem_sws,critical,1/10/2017,21:00,top_img,true,2278,2,2_1_2_1,word_3_word_1_word_2,far,hand,English_Speech,adult,megan,1990-01-18,Scottish,English,N/a,Labourer/Teacher,N/a,[,1,male
aoAN6,16,17,mal_plain,fem_sws,3,ambulance,hand,ambulance,hand,cake,ambulance,mal_plain_fem_sws,critical,1/10/2017,21:00,right,true,3931,1,2_1_2_1,word_3_word_1_word_2,far,ambulance,English_Speech,adult,megan,1990-01-18,Scottish,English,N/a,Labourer/Teacher,N/a,[,1,male
aoAN6,17,22,mal_plain,fem_sws,1,doctor,bike,bike,doctor,dog,bike,mal_plain_fem_sws,critical,1/10/2017,21:00,top_img,true,2399,1,2_1_1_1,word_3_word_2_word_1,near,doctor,English_Speech,adult,megan,1990-01-18,Scottish,English,N/a,Labourer/Teacher,N/a,[,1,male
aoAN6,17,22,mal_plain,fem_sws,2,doctor,bike,bike,doctor,dog,bike,mal_plain_fem_sws,critical,1/10/2017,21:00,right,true,2271,2,2_1_1_1,word_3_word_2_word_1,near,bike,English_Speech,adult,megan,1990-01-18,Scottish,English,N/a,Labourer/Teacher,N/a,[,1,male
aoAN6,17,22,mal_plain,fem_sws,3,doctor,bike,bike,doctor,dog,bike,mal_plain_fem_sws,critical,1/10/2017,21:00,top_img,false,4413,1,2_1_1_1,word_3_word_2_word_1,near,doctor,English_Speech,adult,megan,1990-01-18,Scottish,English,N/a,Labourer/Teacher,N/a,[,1,male
aoAN6,18,6,mal_plain,fem_sws,1,bird,carrot,peas,bird,carrot,peas,mal_plain_fem_sws,critical,1/10/2017,21:00,top_img,true,1683,2,2_1_1_0,word_1_word_3_word_2,different,bird,English_Speech,adult,megan,1990-01-18,Scottish,English,N/a,Labourer/Teacher,N/a,[,1,male
aoAN6,18,6,mal_plain,fem_sws,2,bird,carrot,peas,bird,carrot,peas,mal_plain_fem_sws,critical,1/10/2017,21:00,left,true,1868,2,2_1_1_0,word_1_word_3_word_2,different,carrot,English_Speech,adult,megan,1990-01-18,Scottish,English,N/a,Labourer/Teacher,N/a,[,1,male
aoAN6,18,6,mal_plain,fem_sws,3,bird,carrot,peas,bird,carrot,peas,mal_plain_fem_sws,critical,1/10/2017,21:00,right,true,3947,2,2_1_1_0,word_1_word_3_word_2,different,peas,English_Speech,adult,megan,1990-01-18,Scottish,English,N/a,Labourer/Teacher,N/a,[,1,male
aoAN6,19,12,mal_plain,fem_sws,1,gloves,foot,yoghurt,yoghurt,foot,gloves,mal_plain_fem_sws,critical,1/10/2017,21:00,right,true,2294,2,2_1_2_0,word_2_word_1_word_3,different,gloves,English_Speech,adult,megan,1990-01-18,Scottish,English,N/a,Labourer/Teacher,N/a,[,1,male
aoAN6,19,12,mal_plain,fem_sws,2,gloves,foot,yoghurt,yoghurt,foot,gloves,mal_plain_fem_sws,critical,1/10/2017,21:00,left,true,1930,1,2_1_2_0,word_2_word_1_word_3,different,foot,English_Speech,adult,megan,1990-01-18,Scottish,English,N/a,Labourer/Teacher,N/a,[,1,male
aoAN6,19,12,mal_plain,fem_sws,3,gloves,foot,yoghurt,yoghurt,foot,gloves,mal_plain_fem_sws,critical,1/10/2017,21:00,top_img,true,2714,1,2_1_2_0,word_2_word_1_word_3,different,yoghurt,English_Speech,adult,megan,1990-01-18,Scottish,English,N/a,Labourer/Teacher,N/a,[,1,male
aoAN6,20,5,mal_plain,fem_sws,1,mouth,car,orange,car,orange,mouth,mal_plain_fem_sws,critical,1/10/2017,21:00,right,true,1706,2,2_1_1_0,word_2_word_1_word_3,different,mouth,English_Speech,adult,megan,1990-01-18,Scottish,English,N/a,Labourer/Teacher,N/a,[,1,male
aoAN6,20,5,mal_plain,fem_sws,2,mouth,car,orange,car,orange,mouth,mal_plain_fem_sws,critical,1/10/2017,21:00,top_img,true,2663,2,2_1_1_0,word_2_word_1_word_3,different,car,English_Speech,adult,megan,1990-01-18,Scottish,English,N/a,Labourer/Teacher,N/a,[,1,male
aoAN6,20,5,mal_plain,fem_sws,3,mouth,car,orange,car,orange,mouth,mal_plain_fem_sws,critical,1/10/2017,21:00,left,true,2949,1,2_1_1_0,word_2_word_1_word_3,different,orange,English_Speech,adult,megan,1990-01-18,Scottish,English,N/a,Labourer/Teacher,N/a,[,1,male
aoAN6,21,24,mal_plain,fem_sws,1,sink,fish,fish,socks,fish,sink,mal_plain_fem_sws,critical,1/10/2017,21:00,right,true,2763,2,1_2_2_1,word_3_word_2_word_1,near,sink,English_Speech,adult,megan,1990-01-18,Scottish,English,N/a,Labourer/Teacher,N/a,[,1,male
aoAN6,21,24,mal_plain,fem_sws,2,sink,fish,fish,socks,fish,sink,mal_plain_fem_sws,critical,1/10/2017,21:00,left,true,1684,3,1_2_2_1,word_3_word_2_word_1,near,fish,English_Speech,adult,megan,1990-01-18,Scottish,English,N/a,Labourer/Teacher,N/a,[,1,male
aoAN6,21,24,mal_plain,fem_sws,3,sink,fish,fish,socks,fish,sink,mal_plain_fem_sws,critical,1/10/2017,21:00,left,true,2989,1,1_2_2_1,word_3_word_2_word_1,near,fish,English_Speech,adult,megan,1990-01-18,Scottish,English,N/a,Labourer/Teacher,N/a,[,1,male
aoAN6,22,20,mal_plain,fem_sws,1,jumper,rabbit,apple,jumper,apple,rabbit,mal_plain_fem_sws,critical,1/10/2017,21:00,top_img,true,2142,2,2_1_2_0,word_1_word_3_word_2,different,jumper,English_Speech,adult,megan,1990-01-18,Scottish,English,N/a,Labourer/Teacher,N/a,[,1,male
aoAN6,22,20,mal_plain,fem_sws,2,jumper,rabbit,apple,jumper,apple,rabbit,mal_plain_fem_sws,critical,1/10/2017,21:00,right,true,1674,1,2_1_2_0,word_1_word_3_word_2,different,rabbit,English_Speech,adult,megan,1990-01-18,Scottish,English,N/a,Labourer/Teacher,N/a,[,1,male
aoAN6,22,20,mal_plain,fem_sws,3,jumper,rabbit,apple,jumper,apple,rabbit,mal_plain_fem_sws,critical,1/10/2017,21:00,left,true,4318,1,2_1_2_0,word_1_word_3_word_2,different,apple,English_Speech,adult,megan,1990-01-18,Scottish,English,N/a,Labourer/Teacher,N/a,[,1,male
aoAN6,23,4,mal_plain,fem_sws,1,strawberry,flower,strawberry,strawberry,coat,flower,mal_plain_fem_sws,critical,1/10/2017,21:00,top_img,true,2038,1,2_1_2_1,word_2_word_1_word_3,far,strawberry,English_Speech,adult,megan,1990-01-18,Scottish,English,N/a,Labourer/Teacher,N/a,[,1,male
aoAN6,23,4,mal_plain,fem_sws,2,strawberry,flower,strawberry,strawberry,coat,flower,mal_plain_fem_sws,critical,1/10/2017,21:00,right,true,1675,1,2_1_2_1,word_2_word_1_word_3,far,flower,English_Speech,adult,megan,1990-01-18,Scottish,English,N/a,Labourer/Teacher,N/a,[,1,male
aoAN6,23,4,mal_plain,fem_sws,3,strawberry,flower,strawberry,strawberry,coat,flower,mal_plain_fem_sws,critical,1/10/2017,21:00,top_img,true,3629,1,2_1_2_1,word_2_word_1_word_3,far,strawberry,English_Speech,adult,megan,1990-01-18,Scottish,English,N/a,Labourer/Teacher,N/a,[,1,male
aoAN6,24,13,mal_plain,fem_sws,1,airplane,bread,bread,airplane,toothbrush,bread,mal_plain_fem_sws,critical,1/10/2017,21:00,top_img,true,2420,1,2_1_1_1,word_2_word_1_word_3,near,airplane,English_Speech,adult,megan,1990-01-18,Scottish,English,N/a,Labourer/Teacher,N/a,[,1,male
aoAN6,24,13,mal_plain,fem_sws,2,airplane,bread,bread,airplane,toothbrush,bread,mal_plain_fem_sws,critical,1/10/2017,21:00,right,true,2242,1,2_1_1_1,word_2_word_1_word_3,near,bread,English_Speech,adult,megan,1990-01-18,Scottish,English,N/a,Labourer/Teacher,N/a,[,1,male
aoAN6,24,13,mal_plain,fem_sws,3,airplane,bread,bread,airplane,toothbrush,bread,mal_plain_fem_sws,critical,1/10/2017,21:00,left,false,4126,1,2_1_1_1,word_2_word_1_word_3,near,toothbrush,English_Speech,adult,megan,1990-01-18,Scottish,English,N/a,Labourer/Teacher,N/a,[,1,male
aoAN6,25,16,mal_plain,fem_sws,1,chair,paintbrush,chair,chair,paintbrush,banana,mal_plain_fem_sws,critical,1/10/2017,21:00,top_img,true,2713,1,1_2_1_1,word_3_word_1_word_2,far,chair,English_Speech,adult,megan,1990-01-18,Scottish,English,N/a,Labourer/Teacher,N/a,[,1,male
aoAN6,25,16,mal_plain,fem_sws,2,chair,paintbrush,chair,chair,paintbrush,banana,mal_plain_fem_sws,critical,1/10/2017,21:00,left,true,2463,1,1_2_1_1,word_3_word_1_word_2,far,paintbrush,English_Speech,adult,megan,1990-01-18,Scottish,English,N/a,Labourer/Teacher,N/a,[,1,male
aoAN6,25,16,mal_plain,fem_sws,3,chair,paintbrush,chair,chair,paintbrush,banana,mal_plain_fem_sws,critical,1/10/2017,21:00,top_img,true,4327,1,1_2_1_1,word_3_word_1_word_2,far,chair,English_Speech,adult,megan,1990-01-18,Scottish,English,N/a,Labourer/Teacher,N/a,[,1,male
