subject_id,trial_number,trial_id,plain,sws,instruction_number,sound1_item,sound2_item,sound3_item,top_image,left_image,right_image,sound_gender,trial_type,date_stamp,time_stamp,side_chosen,accuracy,rt,play_counter,order,pic_position,distance,chosen_pic,test_lang,testing_loc,tester,date_of_birth,ethnicity,native_lang,other_langs,parental_occ,dev_info,birth_order,num_siblings,gender
aQEgL,1,0,fem_plain,fem_sws,1,glasses,tractor,glasses,tractor,fireman,glasses,fem_plain_fem_sws,training,1/5/2017,18:11,right,true,4205,3,2_1_2_1,word_3_word_1_word_2,far,glasses,English_Speech,adult,katy,1966-06-24,,,,,,,,male
aQEgL,1,0,fem_plain,fem_sws,2,glasses,tractor,glasses,tractor,fireman,glasses,fem_plain_fem_sws,training,1/5/2017,18:11,top_img,true,1983,2,2_1_2_1,word_3_word_1_word_2,far,tractor,English_Speech,adult,katy,1966-06-24,,,,,,,,male
aQEgL,1,0,fem_plain,fem_sws,3,glasses,tractor,glasses,tractor,fireman,glasses,fem_plain_fem_sws,training,1/5/2017,18:11,right,true,3558,4,2_1_2_1,word_3_word_1_word_2,far,glasses,English_Speech,adult,katy,1966-06-24,,,,,,,,male
aQEgL,2,21,fem_plain,fem_sws,1,sheep,frog,frog,sheep,eye,frog,fem_plain_fem_sws,critical,1/5/2017,18:11,top_img,true,2111,2,2_1_1_1,word_2_word_3_word_1,near,sheep,English_Speech,adult,katy,1966-06-24,,,,,,,,male
aQEgL,2,21,fem_plain,fem_sws,2,sheep,frog,frog,sheep,eye,frog,fem_plain_fem_sws,critical,1/5/2017,18:11,right,true,3267,1,2_1_1_1,word_2_word_3_word_1,near,frog,English_Speech,adult,katy,1966-06-24,,,,,,,,male
aQEgL,2,21,fem_plain,fem_sws,3,sheep,frog,frog,sheep,eye,frog,fem_plain_fem_sws,critical,1/5/2017,18:11,right,true,2921,3,2_1_1_1,word_2_word_3_word_1,near,frog,English_Speech,adult,katy,1966-06-24,,,,,,,,male
aQEgL,3,7,fem_plain,fem_sws,1,cat,horse,cat,cat,horse,lolly,fem_plain_fem_sws,critical,1/5/2017,18:11,top_img,true,2714,2,2_1_2_1,word_3_word_2_word_1,far,cat,English_Speech,adult,katy,1966-06-24,,,,,,,,male
aQEgL,3,7,fem_plain,fem_sws,2,cat,horse,cat,cat,horse,lolly,fem_plain_fem_sws,critical,1/5/2017,18:11,left,true,1905,2,2_1_2_1,word_3_word_2_word_1,far,horse,English_Speech,adult,katy,1966-06-24,,,,,,,,male
aQEgL,3,7,fem_plain,fem_sws,3,cat,horse,cat,cat,horse,lolly,fem_plain_fem_sws,critical,1/5/2017,18:11,top_img,true,4447,1,2_1_2_1,word_3_word_2_word_1,far,cat,English_Speech,adult,katy,1966-06-24,,,,,,,,male
aQEgL,4,20,fem_plain,fem_sws,1,apple,jumper,apple,apple,rabbit,jumper,fem_plain_fem_sws,critical,1/5/2017,18:11,top_img,true,2318,4,1_2_1_1,word_3_word_2_word_1,far,apple,English_Speech,adult,katy,1966-06-24,,,,,,,,male
aQEgL,4,20,fem_plain,fem_sws,2,apple,jumper,apple,apple,rabbit,jumper,fem_plain_fem_sws,critical,1/5/2017,18:11,right,true,1807,2,1_2_1_1,word_3_word_2_word_1,far,jumper,English_Speech,adult,katy,1966-06-24,,,,,,,,male
aQEgL,4,20,fem_plain,fem_sws,3,apple,jumper,apple,apple,rabbit,jumper,fem_plain_fem_sws,critical,1/5/2017,18:11,top_img,true,2399,4,1_2_1_1,word_3_word_2_word_1,far,apple,English_Speech,adult,katy,1966-06-24,,,,,,,,male
aQEgL,5,15,fem_plain,fem_sws,1,pencil,slide,pencil,pencil,beans,slide,fem_plain_fem_sws,critical,1/5/2017,18:11,top_img,true,2604,2,1_2_1_1,word_2_word_3_word_1,far,pencil,English_Speech,adult,katy,1966-06-24,,,,,,,,male
aQEgL,5,15,fem_plain,fem_sws,2,pencil,slide,pencil,pencil,beans,slide,fem_plain_fem_sws,critical,1/5/2017,18:11,right,true,2715,2,1_2_1_1,word_2_word_3_word_1,far,slide,English_Speech,adult,katy,1966-06-24,,,,,,,,male
aQEgL,5,15,fem_plain,fem_sws,3,pencil,slide,pencil,pencil,beans,slide,fem_plain_fem_sws,critical,1/5/2017,18:11,top_img,true,2440,2,1_2_1_1,word_2_word_3_word_1,far,pencil,English_Speech,adult,katy,1966-06-24,,,,,,,,male
aQEgL,6,1,fem_plain,fem_sws,1,spoon,train,train,train,spoon,baby,fem_plain_fem_sws,critical,1/5/2017,18:11,left,true,1907,2,1_2_2_1,word_3_word_1_word_2,near,spoon,English_Speech,adult,katy,1966-06-24,,,,,,,,male
aQEgL,6,1,fem_plain,fem_sws,2,spoon,train,train,train,spoon,baby,fem_plain_fem_sws,critical,1/5/2017,18:11,top_img,true,2177,2,1_2_2_1,word_3_word_1_word_2,near,train,English_Speech,adult,katy,1966-06-24,,,,,,,,male
aQEgL,6,1,fem_plain,fem_sws,3,spoon,train,train,train,spoon,baby,fem_plain_fem_sws,critical,1/5/2017,18:11,top_img,true,2479,1,1_2_2_1,word_3_word_1_word_2,near,train,English_Speech,adult,katy,1966-06-24,,,,,,,,male
aQEgL,7,23,fem_plain,fem_sws,1,teddy_bear,bath,table,table,teddy_bear,bath,fem_plain_fem_sws,critical,1/5/2017,18:11,left,true,2634,2,2_1_1_0,word_3_word_2_word_1,different,teddy_bear,English_Speech,adult,katy,1966-06-24,,,,,,,,male
aQEgL,7,23,fem_plain,fem_sws,2,teddy_bear,bath,table,table,teddy_bear,bath,fem_plain_fem_sws,critical,1/5/2017,18:11,right,true,2475,2,2_1_1_0,word_3_word_2_word_1,different,bath,English_Speech,adult,katy,1966-06-24,,,,,,,,male
aQEgL,7,23,fem_plain,fem_sws,3,teddy_bear,bath,table,table,teddy_bear,bath,fem_plain_fem_sws,critical,1/5/2017,18:11,top_img,true,2398,2,2_1_1_0,word_3_word_2_word_1,different,table,English_Speech,adult,katy,1966-06-24,,,,,,,,male
aQEgL,8,3,fem_plain,fem_sws,1,telephone,trousers,trousers,telephone,nose,trousers,fem_plain_fem_sws,critical,1/5/2017,18:11,top_img,true,3240,2,1_2_2_1,word_3_word_2_word_1,near,telephone,English_Speech,adult,katy,1966-06-24,,,,,,,,male
aQEgL,8,3,fem_plain,fem_sws,2,telephone,trousers,trousers,telephone,nose,trousers,fem_plain_fem_sws,critical,1/5/2017,18:11,right,true,1889,2,1_2_2_1,word_3_word_2_word_1,near,trousers,English_Speech,adult,katy,1966-06-24,,,,,,,,male
aQEgL,8,3,fem_plain,fem_sws,3,telephone,trousers,trousers,telephone,nose,trousers,fem_plain_fem_sws,critical,1/5/2017,18:11,right,true,2150,1,1_2_2_1,word_3_word_2_word_1,near,trousers,English_Speech,adult,katy,1966-06-24,,,,,,,,male
aQEgL,9,13,fem_plain,fem_sws,1,toothbrush,airplane,bread,bread,airplane,toothbrush,fem_plain_fem_sws,critical,1/5/2017,18:11,right,true,2150,2,2_1_1_0,word_3_word_2_word_1,different,toothbrush,English_Speech,adult,katy,1966-06-24,,,,,,,,male
aQEgL,9,13,fem_plain,fem_sws,2,toothbrush,airplane,bread,bread,airplane,toothbrush,fem_plain_fem_sws,critical,1/5/2017,18:11,left,true,2000,4,2_1_1_0,word_3_word_2_word_1,different,airplane,English_Speech,adult,katy,1966-06-24,,,,,,,,male
aQEgL,9,13,fem_plain,fem_sws,3,toothbrush,airplane,bread,bread,airplane,toothbrush,fem_plain_fem_sws,critical,1/5/2017,18:11,top_img,true,3720,2,2_1_1_0,word_3_word_2_word_1,different,bread,English_Speech,adult,katy,1966-06-24,,,,,,,,male
aQEgL,10,9,fem_plain,fem_sws,1,pizza,grapes,window,pizza,grapes,window,fem_plain_fem_sws,critical,1/5/2017,18:11,top_img,true,2351,2,1_2_2_0,word_1_word_3_word_2,different,pizza,English_Speech,adult,katy,1966-06-24,,,,,,,,male
aQEgL,10,9,fem_plain,fem_sws,2,pizza,grapes,window,pizza,grapes,window,fem_plain_fem_sws,critical,1/5/2017,18:11,left,true,2222,1,1_2_2_0,word_1_word_3_word_2,different,grapes,English_Speech,adult,katy,1966-06-24,,,,,,,,male
aQEgL,10,9,fem_plain,fem_sws,3,pizza,grapes,window,pizza,grapes,window,fem_plain_fem_sws,critical,1/5/2017,18:11,right,true,1813,1,1_2_2_0,word_1_word_3_word_2,different,window,English_Speech,adult,katy,1966-06-24,,,,,,,,male
aQEgL,11,11,fem_plain,fem_sws,1,lorry,book,cow,cow,book,lorry,fem_plain_fem_sws,critical,1/5/2017,18:11,right,true,1987,2,1_2_2_0,word_3_word_1_word_2,different,lorry,English_Speech,adult,katy,1966-06-24,,,,,,,,male
aQEgL,11,11,fem_plain,fem_sws,2,lorry,book,cow,cow,book,lorry,fem_plain_fem_sws,critical,1/5/2017,18:11,left,true,1962,2,1_2_2_0,word_3_word_1_word_2,different,book,English_Speech,adult,katy,1966-06-24,,,,,,,,male
aQEgL,11,11,fem_plain,fem_sws,3,lorry,book,cow,cow,book,lorry,fem_plain_fem_sws,critical,1/5/2017,18:11,top_img,true,2802,2,1_2_2_0,word_3_word_1_word_2,different,cow,English_Speech,adult,katy,1966-06-24,,,,,,,,male
aQEgL,12,19,fem_plain,fem_sws,1,tree,santa,building_blocks,building_blocks,santa,tree,fem_plain_fem_sws,critical,1/5/2017,18:11,right,true,2396,2,1_2_2_0,word_2_word_1_word_3,different,tree,English_Speech,adult,katy,1966-06-24,,,,,,,,male
aQEgL,12,19,fem_plain,fem_sws,2,tree,santa,building_blocks,building_blocks,santa,tree,fem_plain_fem_sws,critical,1/5/2017,18:11,left,true,3414,1,1_2_2_0,word_2_word_1_word_3,different,santa,English_Speech,adult,katy,1966-06-24,,,,,,,,male
aQEgL,12,19,fem_plain,fem_sws,3,tree,santa,building_blocks,building_blocks,santa,tree,fem_plain_fem_sws,critical,1/5/2017,18:11,top_img,true,2452,1,1_2_2_0,word_2_word_1_word_3,different,building_blocks,English_Speech,adult,katy,1966-06-24,,,,,,,,male
aQEgL,13,24,fem_plain,fem_sws,1,sink,socks,fish,fish,sink,socks,fem_plain_fem_sws,critical,1/5/2017,18:11,left,true,2818,2,2_1_1_0,word_2_word_1_word_3,different,sink,English_Speech,adult,katy,1966-06-24,,,,,,,,male
aQEgL,13,24,fem_plain,fem_sws,2,sink,socks,fish,fish,sink,socks,fem_plain_fem_sws,critical,1/5/2017,18:11,right,true,2314,2,2_1_1_0,word_2_word_1_word_3,different,socks,English_Speech,adult,katy,1966-06-24,,,,,,,,male
aQEgL,13,24,fem_plain,fem_sws,3,sink,socks,fish,fish,sink,socks,fem_plain_fem_sws,critical,1/5/2017,18:11,top_img,true,2102,1,2_1_1_0,word_2_word_1_word_3,different,fish,English_Speech,adult,katy,1966-06-24,,,,,,,,male
aQEgL,14,2,fem_plain,fem_sws,1,bed,chicken,bed,bed,fork,chicken,fem_plain_fem_sws,critical,1/5/2017,18:11,top_img,true,3301,2,1_2_1_1,word_1_word_3_word_2,far,bed,English_Speech,adult,katy,1966-06-24,,,,,,,,male
aQEgL,14,2,fem_plain,fem_sws,2,bed,chicken,bed,bed,fork,chicken,fem_plain_fem_sws,critical,1/5/2017,18:11,right,true,2549,2,1_2_1_1,word_1_word_3_word_2,far,chicken,English_Speech,adult,katy,1966-06-24,,,,,,,,male
aQEgL,14,2,fem_plain,fem_sws,3,bed,chicken,bed,bed,fork,chicken,fem_plain_fem_sws,critical,1/5/2017,18:11,top_img,true,3087,2,1_2_1_1,word_1_word_3_word_2,far,bed,English_Speech,adult,katy,1966-06-24,,,,,,,,male
aQEgL,15,17,fem_plain,fem_sws,1,ambulance,cake,hand,hand,ambulance,cake,fem_plain_fem_sws,critical,1/5/2017,18:11,left,true,2320,2,2_1_2_0,word_3_word_2_word_1,different,ambulance,English_Speech,adult,katy,1966-06-24,,,,,,,,male
aQEgL,15,17,fem_plain,fem_sws,2,ambulance,cake,hand,hand,ambulance,cake,fem_plain_fem_sws,critical,1/5/2017,18:11,right,true,2281,2,2_1_2_0,word_3_word_2_word_1,different,cake,English_Speech,adult,katy,1966-06-24,,,,,,,,male
aQEgL,15,17,fem_plain,fem_sws,3,ambulance,cake,hand,hand,ambulance,cake,fem_plain_fem_sws,critical,1/5/2017,18:11,top_img,true,2799,1,2_1_2_0,word_3_word_2_word_1,different,hand,English_Speech,adult,katy,1966-06-24,,,,,,,,male
aQEgL,16,12,fem_plain,fem_sws,1,gloves,foot,yoghurt,foot,gloves,yoghurt,fem_plain_fem_sws,critical,1/5/2017,18:11,left,true,3085,2,2_1_1_0,word_1_word_3_word_2,different,gloves,English_Speech,adult,katy,1966-06-24,,,,,,,,male
aQEgL,16,12,fem_plain,fem_sws,2,gloves,foot,yoghurt,foot,gloves,yoghurt,fem_plain_fem_sws,critical,1/5/2017,18:11,top_img,true,2797,2,2_1_1_0,word_1_word_3_word_2,different,foot,English_Speech,adult,katy,1966-06-24,,,,,,,,male
aQEgL,16,12,fem_plain,fem_sws,3,gloves,foot,yoghurt,foot,gloves,yoghurt,fem_plain_fem_sws,critical,1/5/2017,18:11,right,true,2189,1,2_1_1_0,word_1_word_3_word_2,different,yoghurt,English_Speech,adult,katy,1966-06-24,,,,,,,,male
aQEgL,17,22,fem_plain,fem_sws,1,bike,dog,bike,doctor,bike,dog,fem_plain_fem_sws,critical,1/5/2017,18:11,left,true,2159,2,2_1_2_1,word_3_word_1_word_2,far,bike,English_Speech,adult,katy,1966-06-24,,,,,,,,male
aQEgL,17,22,fem_plain,fem_sws,2,bike,dog,bike,doctor,bike,dog,fem_plain_fem_sws,critical,1/5/2017,18:11,right,true,2107,2,2_1_2_1,word_3_word_1_word_2,far,dog,English_Speech,adult,katy,1966-06-24,,,,,,,,male
aQEgL,17,22,fem_plain,fem_sws,3,bike,dog,bike,doctor,bike,dog,fem_plain_fem_sws,critical,1/5/2017,18:11,left,true,3261,2,2_1_2_1,word_3_word_1_word_2,far,bike,English_Speech,adult,katy,1966-06-24,,,,,,,,male
aQEgL,18,8,fem_plain,fem_sws,1,fire_engine,wellyboots,wellyboots,fire_engine,ear,wellyboots,fem_plain_fem_sws,critical,1/5/2017,18:11,top_img,true,3084,2,2_1_1_1,word_2_word_3_word_1,near,fire_engine,English_Speech,adult,katy,1966-06-24,,,,,,,,male
aQEgL,18,8,fem_plain,fem_sws,2,fire_engine,wellyboots,wellyboots,fire_engine,ear,wellyboots,fem_plain_fem_sws,critical,1/5/2017,18:11,right,true,2316,1,2_1_1_1,word_2_word_3_word_1,near,wellyboots,English_Speech,adult,katy,1966-06-24,,,,,,,,male
aQEgL,18,8,fem_plain,fem_sws,3,fire_engine,wellyboots,wellyboots,fire_engine,ear,wellyboots,fem_plain_fem_sws,critical,1/5/2017,18:11,right,true,2597,1,2_1_1_1,word_2_word_3_word_1,near,wellyboots,English_Speech,adult,katy,1966-06-24,,,,,,,,male
aQEgL,19,16,fem_plain,fem_sws,1,paintbrush,chair,banana,banana,paintbrush,chair,fem_plain_fem_sws,critical,1/5/2017,18:11,left,true,2949,2,2_1_2_0,word_2_word_1_word_3,different,paintbrush,English_Speech,adult,katy,1966-06-24,,,,,,,,male
aQEgL,19,16,fem_plain,fem_sws,2,paintbrush,chair,banana,banana,paintbrush,chair,fem_plain_fem_sws,critical,1/5/2017,18:11,right,true,2439,2,2_1_2_0,word_2_word_1_word_3,different,chair,English_Speech,adult,katy,1966-06-24,,,,,,,,male
aQEgL,19,16,fem_plain,fem_sws,3,paintbrush,chair,banana,banana,paintbrush,chair,fem_plain_fem_sws,critical,1/5/2017,18:11,top_img,true,2053,3,2_1_2_0,word_2_word_1_word_3,different,banana,English_Speech,adult,katy,1966-06-24,,,,,,,,male
aQEgL,20,5,fem_plain,fem_sws,1,mouth,car,car,car,orange,mouth,fem_plain_fem_sws,critical,1/5/2017,18:11,right,true,2173,2,1_2_2_1,word_2_word_1_word_3,near,mouth,English_Speech,adult,katy,1966-06-24,,,,,,,,male
aQEgL,20,5,fem_plain,fem_sws,2,mouth,car,car,car,orange,mouth,fem_plain_fem_sws,critical,1/5/2017,18:11,top_img,true,2321,2,1_2_2_1,word_2_word_1_word_3,near,car,English_Speech,adult,katy,1966-06-24,,,,,,,,male
aQEgL,20,5,fem_plain,fem_sws,3,mouth,car,car,car,orange,mouth,fem_plain_fem_sws,critical,1/5/2017,18:11,top_img,true,2235,1,1_2_2_1,word_2_word_1_word_3,near,car,English_Speech,adult,katy,1966-06-24,,,,,,,,male
aQEgL,21,18,fem_plain,fem_sws,1,raspberry,camera,ball,raspberry,camera,ball,fem_plain_fem_sws,critical,1/5/2017,18:11,top_img,true,2936,2,2_1_1_0,word_2_word_3_word_1,different,raspberry,English_Speech,adult,katy,1966-06-24,,,,,,,,male
aQEgL,21,18,fem_plain,fem_sws,2,raspberry,camera,ball,raspberry,camera,ball,fem_plain_fem_sws,critical,1/5/2017,18:11,left,true,2034,2,2_1_1_0,word_2_word_3_word_1,different,camera,English_Speech,adult,katy,1966-06-24,,,,,,,,male
aQEgL,21,18,fem_plain,fem_sws,3,raspberry,camera,ball,raspberry,camera,ball,fem_plain_fem_sws,critical,1/5/2017,18:11,right,true,3326,1,2_1_1_0,word_2_word_3_word_1,different,ball,English_Speech,adult,katy,1966-06-24,,,,,,,,male
aQEgL,22,10,fem_plain,fem_sws,1,tshirt,pig,hat,tshirt,hat,pig,fem_plain_fem_sws,critical,1/5/2017,18:11,top_img,true,3064,2,2_1_1_0,word_2_word_3_word_1,different,tshirt,English_Speech,adult,katy,1966-06-24,,,,,,,,male
aQEgL,22,10,fem_plain,fem_sws,2,tshirt,pig,hat,tshirt,hat,pig,fem_plain_fem_sws,critical,1/5/2017,18:11,right,true,2004,1,2_1_1_0,word_2_word_3_word_1,different,pig,English_Speech,adult,katy,1966-06-24,,,,,,,,male
aQEgL,22,10,fem_plain,fem_sws,3,tshirt,pig,hat,tshirt,hat,pig,fem_plain_fem_sws,critical,1/5/2017,18:11,left,true,2278,2,2_1_1_0,word_2_word_3_word_1,different,hat,English_Speech,adult,katy,1966-06-24,,,,,,,,male
aQEgL,23,6,fem_plain,fem_sws,1,bird,carrot,carrot,carrot,bird,peas,fem_plain_fem_sws,critical,1/5/2017,18:11,left,true,2182,2,2_1_1_1,word_3_word_1_word_2,near,bird,English_Speech,adult,katy,1966-06-24,,,,,,,,male
aQEgL,23,6,fem_plain,fem_sws,2,bird,carrot,carrot,carrot,bird,peas,fem_plain_fem_sws,critical,1/5/2017,18:11,top_img,true,2714,1,2_1_1_1,word_3_word_1_word_2,near,carrot,English_Speech,adult,katy,1966-06-24,,,,,,,,male
aQEgL,23,6,fem_plain,fem_sws,3,bird,carrot,carrot,carrot,bird,peas,fem_plain_fem_sws,critical,1/5/2017,18:11,top_img,true,2566,1,2_1_1_1,word_3_word_1_word_2,near,carrot,English_Speech,adult,katy,1966-06-24,,,,,,,,male
aQEgL,24,14,fem_plain,fem_sws,1,door,cheese,shoes,shoes,cheese,door,fem_plain_fem_sws,critical,1/5/2017,18:11,right,true,2324,2,2_1_2_0,word_2_word_1_word_3,different,door,English_Speech,adult,katy,1966-06-24,,,,,,,,male
aQEgL,24,14,fem_plain,fem_sws,2,door,cheese,shoes,shoes,cheese,door,fem_plain_fem_sws,critical,1/5/2017,18:11,left,true,2540,2,2_1_2_0,word_2_word_1_word_3,different,cheese,English_Speech,adult,katy,1966-06-24,,,,,,,,male
aQEgL,24,14,fem_plain,fem_sws,3,door,cheese,shoes,shoes,cheese,door,fem_plain_fem_sws,critical,1/5/2017,18:11,top_img,true,2393,1,2_1_2_0,word_2_word_1_word_3,different,shoes,English_Speech,adult,katy,1966-06-24,,,,,,,,male
aQEgL,25,4,fem_plain,fem_sws,1,coat,strawberry,coat,strawberry,coat,flower,fem_plain_fem_sws,critical,1/5/2017,18:11,left,true,2314,2,1_2_1_1,word_2_word_1_word_3,far,coat,English_Speech,adult,katy,1966-06-24,,,,,,,,male
aQEgL,25,4,fem_plain,fem_sws,2,coat,strawberry,coat,strawberry,coat,flower,fem_plain_fem_sws,critical,1/5/2017,18:11,top_img,true,2195,2,1_2_1_1,word_2_word_1_word_3,far,strawberry,English_Speech,adult,katy,1966-06-24,,,,,,,,male
aQEgL,25,4,fem_plain,fem_sws,3,coat,strawberry,coat,strawberry,coat,flower,fem_plain_fem_sws,critical,1/5/2017,18:11,left,true,2366,1,1_2_1_1,word_2_word_1_word_3,far,coat,English_Speech,adult,katy,1966-06-24,,,,,,,,male
