subject_id,trial_number,trial_id,plain,sws,instruction_number,sound1_item,sound2_item,sound3_item,top_image,left_image,right_image,sound_gender,trial_type,date_stamp,time_stamp,side_chosen,accuracy,rt,play_counter,order,pic_position,distance,chosen_pic,test_lang,testing_loc,tester,date_of_birth,ethnicity,native_lang,other_langs,parental_occ,dev_info,birth_order,num_siblings,gender
i8WCj,1,0,mal_plain,fem_sws,1,fireman,tractor,glasses,glasses,tractor,fireman,mal_plain_fem_sws,training,2/20/2017,14:06,right,true,2769,1,2_1_1_0,word_2_word_3_word_1,different,fireman,English_Speech,adult,megan,,,,,,,,,male
i8WCj,1,0,mal_plain,fem_sws,2,fireman,tractor,glasses,glasses,tractor,fireman,mal_plain_fem_sws,training,2/20/2017,14:06,left,true,2573,1,2_1_1_0,word_2_word_3_word_1,different,tractor,English_Speech,adult,megan,,,,,,,,,male
i8WCj,1,0,mal_plain,fem_sws,3,fireman,tractor,glasses,glasses,tractor,fireman,mal_plain_fem_sws,training,2/20/2017,14:06,top_img,true,3678,1,2_1_1_0,word_2_word_3_word_1,different,glasses,English_Speech,adult,megan,,,,,,,,,male
i8WCj,2,18,mal_plain,fem_sws,1,ball,raspberry,ball,raspberry,camera,ball,mal_plain_fem_sws,critical,2/20/2017,14:06,right,true,3191,1,2_1_2_1,word_2_word_3_word_1,far,ball,English_Speech,adult,megan,,,,,,,,,male
i8WCj,2,18,mal_plain,fem_sws,2,ball,raspberry,ball,raspberry,camera,ball,mal_plain_fem_sws,critical,2/20/2017,14:06,top_img,true,3340,1,2_1_2_1,word_2_word_3_word_1,far,raspberry,English_Speech,adult,megan,,,,,,,,,male
i8WCj,2,18,mal_plain,fem_sws,3,ball,raspberry,ball,raspberry,camera,ball,mal_plain_fem_sws,critical,2/20/2017,14:06,right,true,4204,1,2_1_2_1,word_2_word_3_word_1,far,ball,English_Speech,adult,megan,,,,,,,,,male
i8WCj,3,22,mal_plain,fem_sws,1,dog,bike,bike,doctor,bike,dog,mal_plain_fem_sws,critical,2/20/2017,14:06,right,true,2465,1,2_1_1_1,word_3_word_1_word_2,near,dog,English_Speech,adult,megan,,,,,,,,,male
i8WCj,3,22,mal_plain,fem_sws,2,dog,bike,bike,doctor,bike,dog,mal_plain_fem_sws,critical,2/20/2017,14:06,left,true,3078,1,2_1_1_1,word_3_word_1_word_2,near,bike,English_Speech,adult,megan,,,,,,,,,male
i8WCj,3,22,mal_plain,fem_sws,3,dog,bike,bike,doctor,bike,dog,mal_plain_fem_sws,critical,2/20/2017,14:06,left,true,3135,1,2_1_1_1,word_3_word_1_word_2,near,bike,English_Speech,adult,megan,,,,,,,,,male
i8WCj,4,21,mal_plain,fem_sws,1,eye,frog,sheep,eye,frog,sheep,mal_plain_fem_sws,critical,2/20/2017,14:06,top_img,true,2239,1,2_1_1_0,word_3_word_1_word_2,different,eye,English_Speech,adult,megan,,,,,,,,,male
i8WCj,4,21,mal_plain,fem_sws,2,eye,frog,sheep,eye,frog,sheep,mal_plain_fem_sws,critical,2/20/2017,14:06,left,true,3385,1,2_1_1_0,word_3_word_1_word_2,different,frog,English_Speech,adult,megan,,,,,,,,,male
i8WCj,4,21,mal_plain,fem_sws,3,eye,frog,sheep,eye,frog,sheep,mal_plain_fem_sws,critical,2/20/2017,14:06,right,true,4001,1,2_1_1_0,word_3_word_1_word_2,different,sheep,English_Speech,adult,megan,,,,,,,,,male
i8WCj,5,16,mal_plain,fem_sws,1,chair,banana,paintbrush,banana,paintbrush,chair,mal_plain_fem_sws,critical,2/20/2017,14:06,right,true,3448,1,1_2_2_0,word_2_word_1_word_3,different,chair,English_Speech,adult,megan,,,,,,,,,male
i8WCj,5,16,mal_plain,fem_sws,2,chair,banana,paintbrush,banana,paintbrush,chair,mal_plain_fem_sws,critical,2/20/2017,14:06,top_img,true,2638,1,1_2_2_0,word_2_word_1_word_3,different,banana,English_Speech,adult,megan,,,,,,,,,male
i8WCj,5,16,mal_plain,fem_sws,3,chair,banana,paintbrush,banana,paintbrush,chair,mal_plain_fem_sws,critical,2/20/2017,14:06,left,true,3818,1,1_2_2_0,word_2_word_1_word_3,different,paintbrush,English_Speech,adult,megan,,,,,,,,,male
i8WCj,6,20,mal_plain,fem_sws,1,jumper,rabbit,jumper,jumper,rabbit,apple,mal_plain_fem_sws,critical,2/20/2017,14:06,top_img,true,2335,1,1_2_1_1,word_1_word_2_word_3,far,jumper,English_Speech,adult,megan,,,,,,,,,male
i8WCj,6,20,mal_plain,fem_sws,2,jumper,rabbit,jumper,jumper,rabbit,apple,mal_plain_fem_sws,critical,2/20/2017,14:06,left,true,2472,1,1_2_1_1,word_1_word_2_word_3,far,rabbit,English_Speech,adult,megan,,,,,,,,,male
i8WCj,6,20,mal_plain,fem_sws,3,jumper,rabbit,jumper,jumper,rabbit,apple,mal_plain_fem_sws,critical,2/20/2017,14:06,top_img,true,2574,1,1_2_1_1,word_1_word_2_word_3,far,jumper,English_Speech,adult,megan,,,,,,,,,male
i8WCj,7,5,mal_plain,fem_sws,1,mouth,orange,orange,mouth,car,orange,mal_plain_fem_sws,critical,2/20/2017,14:06,top_img,true,2971,1,2_1_1_1,word_3_word_2_word_1,near,mouth,English_Speech,adult,megan,,,,,,,,,male
i8WCj,7,5,mal_plain,fem_sws,2,mouth,orange,orange,mouth,car,orange,mal_plain_fem_sws,critical,2/20/2017,14:06,right,true,3527,1,2_1_1_1,word_3_word_2_word_1,near,orange,English_Speech,adult,megan,,,,,,,,,male
i8WCj,7,5,mal_plain,fem_sws,3,mouth,orange,orange,mouth,car,orange,mal_plain_fem_sws,critical,2/20/2017,14:06,right,true,3811,1,2_1_1_1,word_3_word_2_word_1,near,orange,English_Speech,adult,megan,,,,,,,,,male
i8WCj,8,13,mal_plain,fem_sws,1,toothbrush,airplane,bread,bread,airplane,toothbrush,mal_plain_fem_sws,critical,2/20/2017,14:06,right,true,2621,1,2_1_1_0,word_3_word_2_word_1,different,toothbrush,English_Speech,adult,megan,,,,,,,,,male
i8WCj,8,13,mal_plain,fem_sws,2,toothbrush,airplane,bread,bread,airplane,toothbrush,mal_plain_fem_sws,critical,2/20/2017,14:06,left,true,2747,1,2_1_1_0,word_3_word_2_word_1,different,airplane,English_Speech,adult,megan,,,,,,,,,male
i8WCj,8,13,mal_plain,fem_sws,3,toothbrush,airplane,bread,bread,airplane,toothbrush,mal_plain_fem_sws,critical,2/20/2017,14:06,top_img,true,3339,1,2_1_1_0,word_3_word_2_word_1,different,bread,English_Speech,adult,megan,,,,,,,,,male
i8WCj,9,24,mal_plain,fem_sws,1,socks,sink,fish,sink,socks,fish,mal_plain_fem_sws,critical,2/20/2017,14:06,left,true,2900,1,2_1_1_0,word_1_word_3_word_2,different,socks,English_Speech,adult,megan,,,,,,,,,male
i8WCj,9,24,mal_plain,fem_sws,2,socks,sink,fish,sink,socks,fish,mal_plain_fem_sws,critical,2/20/2017,14:06,top_img,true,4065,1,2_1_1_0,word_1_word_3_word_2,different,sink,English_Speech,adult,megan,,,,,,,,,male
i8WCj,9,24,mal_plain,fem_sws,3,socks,sink,fish,sink,socks,fish,mal_plain_fem_sws,critical,2/20/2017,14:06,right,true,3405,1,2_1_1_0,word_1_word_3_word_2,different,fish,English_Speech,adult,megan,,,,,,,,,male
i8WCj,10,7,mal_plain,fem_sws,1,cat,lolly,horse,lolly,horse,cat,mal_plain_fem_sws,critical,2/20/2017,14:06,right,true,3078,1,1_2_2_0,word_1_word_2_word_3,different,cat,English_Speech,adult,megan,,,,,,,,,male
i8WCj,10,7,mal_plain,fem_sws,2,cat,lolly,horse,lolly,horse,cat,mal_plain_fem_sws,critical,2/20/2017,14:06,top_img,true,2924,1,1_2_2_0,word_1_word_2_word_3,different,lolly,English_Speech,adult,megan,,,,,,,,,male
i8WCj,10,7,mal_plain,fem_sws,3,cat,lolly,horse,lolly,horse,cat,mal_plain_fem_sws,critical,2/20/2017,14:06,left,true,3415,1,1_2_2_0,word_1_word_2_word_3,different,horse,English_Speech,adult,megan,,,,,,,,,male
i8WCj,11,14,mal_plain,fem_sws,1,cheese,shoes,shoes,cheese,shoes,door,mal_plain_fem_sws,critical,2/20/2017,14:06,top_img,true,2668,1,1_2_2_1,word_1_word_2_word_3,near,cheese,English_Speech,adult,megan,,,,,,,,,male
i8WCj,11,14,mal_plain,fem_sws,2,cheese,shoes,shoes,cheese,shoes,door,mal_plain_fem_sws,critical,2/20/2017,14:06,left,true,2477,1,1_2_2_1,word_1_word_2_word_3,near,shoes,English_Speech,adult,megan,,,,,,,,,male
i8WCj,11,14,mal_plain,fem_sws,3,cheese,shoes,shoes,cheese,shoes,door,mal_plain_fem_sws,critical,2/20/2017,14:06,left,true,2979,1,1_2_2_1,word_1_word_2_word_3,near,shoes,English_Speech,adult,megan,,,,,,,,,male
i8WCj,12,15,mal_plain,fem_sws,1,slide,beans,slide,slide,pencil,beans,mal_plain_fem_sws,critical,2/20/2017,14:06,top_img,true,2730,1,2_1_2_1,word_1_word_2_word_3,far,slide,English_Speech,adult,megan,,,,,,,,,male
i8WCj,12,15,mal_plain,fem_sws,2,slide,beans,slide,slide,pencil,beans,mal_plain_fem_sws,critical,2/20/2017,14:06,right,true,2585,1,2_1_2_1,word_1_word_2_word_3,far,beans,English_Speech,adult,megan,,,,,,,,,male
i8WCj,12,15,mal_plain,fem_sws,3,slide,beans,slide,slide,pencil,beans,mal_plain_fem_sws,critical,2/20/2017,14:06,top_img,true,2998,1,2_1_2_1,word_1_word_2_word_3,far,slide,English_Speech,adult,megan,,,,,,,,,male
i8WCj,13,12,mal_plain,fem_sws,1,foot,yoghurt,gloves,gloves,yoghurt,foot,mal_plain_fem_sws,critical,2/20/2017,14:06,right,true,2931,1,2_1_2_0,word_3_word_2_word_1,different,foot,English_Speech,adult,megan,,,,,,,,,male
i8WCj,13,12,mal_plain,fem_sws,2,foot,yoghurt,gloves,gloves,yoghurt,foot,mal_plain_fem_sws,critical,2/20/2017,14:06,left,true,2717,1,2_1_2_0,word_3_word_2_word_1,different,yoghurt,English_Speech,adult,megan,,,,,,,,,male
i8WCj,13,12,mal_plain,fem_sws,3,foot,yoghurt,gloves,gloves,yoghurt,foot,mal_plain_fem_sws,critical,2/20/2017,14:06,top_img,true,3673,1,2_1_2_0,word_3_word_2_word_1,different,gloves,English_Speech,adult,megan,,,,,,,,,male
i8WCj,14,1,mal_plain,fem_sws,1,baby,train,baby,baby,train,spoon,mal_plain_fem_sws,critical,2/20/2017,14:06,top_img,true,2167,1,1_2_1_1,word_2_word_3_word_1,far,baby,English_Speech,adult,megan,,,,,,,,,male
i8WCj,14,1,mal_plain,fem_sws,2,baby,train,baby,baby,train,spoon,mal_plain_fem_sws,critical,2/20/2017,14:06,left,true,2495,1,1_2_1_1,word_2_word_3_word_1,far,train,English_Speech,adult,megan,,,,,,,,,male
i8WCj,14,1,mal_plain,fem_sws,3,baby,train,baby,baby,train,spoon,mal_plain_fem_sws,critical,2/20/2017,14:06,top_img,true,2723,1,1_2_1_1,word_2_word_3_word_1,far,baby,English_Speech,adult,megan,,,,,,,,,male
i8WCj,15,9,mal_plain,fem_sws,1,grapes,pizza,pizza,pizza,grapes,window,mal_plain_fem_sws,critical,2/20/2017,14:06,left,true,2579,1,2_1_1_1,word_1_word_3_word_2,near,grapes,English_Speech,adult,megan,,,,,,,,,male
i8WCj,15,9,mal_plain,fem_sws,2,grapes,pizza,pizza,pizza,grapes,window,mal_plain_fem_sws,critical,2/20/2017,14:06,top_img,true,2264,1,2_1_1_1,word_1_word_3_word_2,near,pizza,English_Speech,adult,megan,,,,,,,,,male
i8WCj,15,9,mal_plain,fem_sws,3,grapes,pizza,pizza,pizza,grapes,window,mal_plain_fem_sws,critical,2/20/2017,14:06,top_img,true,2932,1,2_1_1_1,word_1_word_3_word_2,near,pizza,English_Speech,adult,megan,,,,,,,,,male
i8WCj,16,17,mal_plain,fem_sws,1,ambulance,hand,cake,ambulance,hand,cake,mal_plain_fem_sws,critical,2/20/2017,14:06,top_img,true,2371,1,2_1_1_0,word_2_word_3_word_1,different,ambulance,English_Speech,adult,megan,,,,,,,,,male
i8WCj,16,17,mal_plain,fem_sws,2,ambulance,hand,cake,ambulance,hand,cake,mal_plain_fem_sws,critical,2/20/2017,14:06,left,true,2913,1,2_1_1_0,word_2_word_3_word_1,different,hand,English_Speech,adult,megan,,,,,,,,,male
i8WCj,16,17,mal_plain,fem_sws,3,ambulance,hand,cake,ambulance,hand,cake,mal_plain_fem_sws,critical,2/20/2017,14:06,right,true,3359,1,2_1_1_0,word_2_word_3_word_1,different,cake,English_Speech,adult,megan,,,,,,,,,male
i8WCj,17,3,mal_plain,fem_sws,1,nose,trousers,telephone,nose,telephone,trousers,mal_plain_fem_sws,critical,2/20/2017,14:06,top_img,true,2793,1,2_1_1_0,word_2_word_3_word_1,different,nose,English_Speech,adult,megan,,,,,,,,,male
i8WCj,17,3,mal_plain,fem_sws,2,nose,trousers,telephone,nose,telephone,trousers,mal_plain_fem_sws,critical,2/20/2017,14:06,right,true,2542,1,2_1_1_0,word_2_word_3_word_1,different,trousers,English_Speech,adult,megan,,,,,,,,,male
i8WCj,17,3,mal_plain,fem_sws,3,nose,trousers,telephone,nose,telephone,trousers,mal_plain_fem_sws,critical,2/20/2017,14:06,left,true,4044,1,2_1_1_0,word_2_word_3_word_1,different,telephone,English_Speech,adult,megan,,,,,,,,,male
i8WCj,18,2,mal_plain,fem_sws,1,chicken,fork,chicken,chicken,fork,bed,mal_plain_fem_sws,critical,2/20/2017,14:06,top_img,true,4207,1,2_1_2_1,word_2_word_3_word_1,far,chicken,English_Speech,adult,megan,,,,,,,,,male
i8WCj,18,2,mal_plain,fem_sws,2,chicken,fork,chicken,chicken,fork,bed,mal_plain_fem_sws,critical,2/20/2017,14:06,left,true,2723,1,2_1_2_1,word_2_word_3_word_1,far,fork,English_Speech,adult,megan,,,,,,,,,male
i8WCj,18,2,mal_plain,fem_sws,3,chicken,fork,chicken,chicken,fork,bed,mal_plain_fem_sws,critical,2/20/2017,14:06,top_img,true,3727,1,2_1_2_1,word_2_word_3_word_1,far,chicken,English_Speech,adult,megan,,,,,,,,,male
i8WCj,19,23,mal_plain,fem_sws,1,table,teddy_bear,teddy_bear,teddy_bear,bath,table,mal_plain_fem_sws,critical,2/20/2017,14:06,right,true,2561,1,1_2_2_1,word_2_word_1_word_3,near,table,English_Speech,adult,megan,,,,,,,,,male
i8WCj,19,23,mal_plain,fem_sws,2,table,teddy_bear,teddy_bear,teddy_bear,bath,table,mal_plain_fem_sws,critical,2/20/2017,14:06,top_img,true,2222,1,1_2_2_1,word_2_word_1_word_3,near,teddy_bear,English_Speech,adult,megan,,,,,,,,,male
i8WCj,19,23,mal_plain,fem_sws,3,table,teddy_bear,teddy_bear,teddy_bear,bath,table,mal_plain_fem_sws,critical,2/20/2017,14:06,top_img,true,2825,1,1_2_2_1,word_2_word_1_word_3,near,teddy_bear,English_Speech,adult,megan,,,,,,,,,male
i8WCj,20,4,mal_plain,fem_sws,1,strawberry,coat,flower,strawberry,flower,coat,mal_plain_fem_sws,critical,2/20/2017,14:06,top_img,true,2345,1,1_2_2_0,word_2_word_3_word_1,different,strawberry,English_Speech,adult,megan,,,,,,,,,male
i8WCj,20,4,mal_plain,fem_sws,2,strawberry,coat,flower,strawberry,flower,coat,mal_plain_fem_sws,critical,2/20/2017,14:06,right,true,2384,1,1_2_2_0,word_2_word_3_word_1,different,coat,English_Speech,adult,megan,,,,,,,,,male
i8WCj,20,4,mal_plain,fem_sws,3,strawberry,coat,flower,strawberry,flower,coat,mal_plain_fem_sws,critical,2/20/2017,14:06,left,true,2729,1,1_2_2_0,word_2_word_3_word_1,different,flower,English_Speech,adult,megan,,,,,,,,,male
i8WCj,21,8,mal_plain,fem_sws,1,ear,wellyboots,wellyboots,fire_engine,wellyboots,ear,mal_plain_fem_sws,critical,2/20/2017,14:06,right,true,2387,1,1_2_2_1,word_2_word_1_word_3,near,ear,English_Speech,adult,megan,,,,,,,,,male
i8WCj,21,8,mal_plain,fem_sws,2,ear,wellyboots,wellyboots,fire_engine,wellyboots,ear,mal_plain_fem_sws,critical,2/20/2017,14:06,left,true,2861,1,1_2_2_1,word_2_word_1_word_3,near,wellyboots,English_Speech,adult,megan,,,,,,,,,male
i8WCj,21,8,mal_plain,fem_sws,3,ear,wellyboots,wellyboots,fire_engine,wellyboots,ear,mal_plain_fem_sws,critical,2/20/2017,14:06,left,true,3005,1,1_2_2_1,word_2_word_1_word_3,near,wellyboots,English_Speech,adult,megan,,,,,,,,,male
i8WCj,22,10,mal_plain,fem_sws,1,pig,hat,pig,pig,hat,tshirt,mal_plain_fem_sws,critical,2/20/2017,14:06,top_img,true,2603,1,1_2_1_1,word_1_word_3_word_2,far,pig,English_Speech,adult,megan,,,,,,,,,male
i8WCj,22,10,mal_plain,fem_sws,2,pig,hat,pig,pig,hat,tshirt,mal_plain_fem_sws,critical,2/20/2017,14:06,left,true,2228,1,1_2_1_1,word_1_word_3_word_2,far,hat,English_Speech,adult,megan,,,,,,,,,male
i8WCj,22,10,mal_plain,fem_sws,3,pig,hat,pig,pig,hat,tshirt,mal_plain_fem_sws,critical,2/20/2017,14:06,top_img,true,2387,1,1_2_1_1,word_1_word_3_word_2,far,pig,English_Speech,adult,megan,,,,,,,,,male
i8WCj,23,6,mal_plain,fem_sws,1,carrot,bird,peas,peas,bird,carrot,mal_plain_fem_sws,critical,2/20/2017,14:06,right,true,2602,1,2_1_2_0,word_2_word_1_word_3,different,carrot,English_Speech,adult,megan,,,,,,,,,male
i8WCj,23,6,mal_plain,fem_sws,2,carrot,bird,peas,peas,bird,carrot,mal_plain_fem_sws,critical,2/20/2017,14:06,left,true,2419,1,2_1_2_0,word_2_word_1_word_3,different,bird,English_Speech,adult,megan,,,,,,,,,male
i8WCj,23,6,mal_plain,fem_sws,3,carrot,bird,peas,peas,bird,carrot,mal_plain_fem_sws,critical,2/20/2017,14:06,top_img,true,2839,1,2_1_2_0,word_2_word_1_word_3,different,peas,English_Speech,adult,megan,,,,,,,,,male
i8WCj,24,11,mal_plain,fem_sws,1,book,lorry,cow,book,lorry,cow,mal_plain_fem_sws,critical,2/20/2017,14:06,top_img,true,2214,1,2_1_2_0,word_1_word_2_word_3,different,book,English_Speech,adult,megan,,,,,,,,,male
i8WCj,24,11,mal_plain,fem_sws,2,book,lorry,cow,book,lorry,cow,mal_plain_fem_sws,critical,2/20/2017,14:06,left,true,2383,1,2_1_2_0,word_1_word_2_word_3,different,lorry,English_Speech,adult,megan,,,,,,,,,male
i8WCj,24,11,mal_plain,fem_sws,3,book,lorry,cow,book,lorry,cow,mal_plain_fem_sws,critical,2/20/2017,14:06,right,true,3537,1,2_1_2_0,word_1_word_2_word_3,different,cow,English_Speech,adult,megan,,,,,,,,,male
i8WCj,25,19,mal_plain,fem_sws,1,tree,santa,tree,tree,building_blocks,santa,mal_plain_fem_sws,critical,2/20/2017,14:06,top_img,true,2510,1,1_2_1_1,word_3_word_2_word_1,far,tree,English_Speech,adult,megan,,,,,,,,,male
i8WCj,25,19,mal_plain,fem_sws,2,tree,santa,tree,tree,building_blocks,santa,mal_plain_fem_sws,critical,2/20/2017,14:06,right,true,3279,1,1_2_1_1,word_3_word_2_word_1,far,santa,English_Speech,adult,megan,,,,,,,,,male
i8WCj,25,19,mal_plain,fem_sws,3,tree,santa,tree,tree,building_blocks,santa,mal_plain_fem_sws,critical,2/20/2017,14:06,top_img,true,2635,1,1_2_1_1,word_3_word_2_word_1,far,tree,English_Speech,adult,megan,,,,,,,,,male
