subject_id,trial_number,trial_id,plain,sws,instruction_number,sound1_item,sound2_item,sound3_item,top_image,left_image,right_image,sound_gender,trial_type,date_stamp,time_stamp,side_chosen,accuracy,rt,play_counter,order,pic_position,distance,chosen_pic,test_lang,testing_loc,tester,date_of_birth,ethnicity,native_lang,other_langs,parental_occ,dev_info,birth_order,num_siblings,gender
m5BBj,1,0,mal_plain,mal_sws,1,fireman,tractor,fireman,glasses,fireman,tractor,mal_plain_mal_sws,training,1/10/2017,20:37,left,true,2569,8,2_1_2_1,word_2_word_1_word_3,far,fireman,English_Speech,adult,megan,1968-09-19,Scottish,English,N/a,Retired,N/a,1,1,female
m5BBj,1,0,mal_plain,mal_sws,2,fireman,tractor,fireman,glasses,fireman,tractor,mal_plain_mal_sws,training,1/10/2017,20:37,right,true,1986,1,2_1_2_1,word_2_word_1_word_3,far,tractor,English_Speech,adult,megan,1968-09-19,Scottish,English,N/a,Retired,N/a,1,1,female
m5BBj,1,0,mal_plain,mal_sws,3,fireman,tractor,fireman,glasses,fireman,tractor,mal_plain_mal_sws,training,1/10/2017,20:37,top_img,false,7370,3,2_1_2_1,word_2_word_1_word_3,far,glasses,English_Speech,adult,megan,1968-09-19,Scottish,English,N/a,Retired,N/a,1,1,female
m5BBj,2,8,mal_plain,mal_sws,1,wellyboots,ear,fire_engine,ear,fire_engine,wellyboots,mal_plain_mal_sws,critical,1/10/2017,20:37,right,true,2672,2,2_1_2_0,word_3_word_2_word_1,different,wellyboots,English_Speech,adult,megan,1968-09-19,Scottish,English,N/a,Retired,N/a,1,1,female
m5BBj,2,8,mal_plain,mal_sws,2,wellyboots,ear,fire_engine,ear,fire_engine,wellyboots,mal_plain_mal_sws,critical,1/10/2017,20:37,top_img,true,2296,2,2_1_2_0,word_3_word_2_word_1,different,ear,English_Speech,adult,megan,1968-09-19,Scottish,English,N/a,Retired,N/a,1,1,female
m5BBj,2,8,mal_plain,mal_sws,3,wellyboots,ear,fire_engine,ear,fire_engine,wellyboots,mal_plain_mal_sws,critical,1/10/2017,20:37,left,true,3066,2,2_1_2_0,word_3_word_2_word_1,different,fire_engine,English_Speech,adult,megan,1968-09-19,Scottish,English,N/a,Retired,N/a,1,1,female
m5BBj,3,17,mal_plain,mal_sws,1,ambulance,cake,hand,ambulance,cake,hand,mal_plain_mal_sws,critical,1/10/2017,20:37,top_img,true,4191,2,2_1_1_0,word_2_word_1_word_3,different,ambulance,English_Speech,adult,megan,1968-09-19,Scottish,English,N/a,Retired,N/a,1,1,female
m5BBj,3,17,mal_plain,mal_sws,2,ambulance,cake,hand,ambulance,cake,hand,mal_plain_mal_sws,critical,1/10/2017,20:37,left,true,2006,2,2_1_1_0,word_2_word_1_word_3,different,cake,English_Speech,adult,megan,1968-09-19,Scottish,English,N/a,Retired,N/a,1,1,female
m5BBj,3,17,mal_plain,mal_sws,3,ambulance,cake,hand,ambulance,cake,hand,mal_plain_mal_sws,critical,1/10/2017,20:37,right,true,2192,2,2_1_1_0,word_2_word_1_word_3,different,hand,English_Speech,adult,megan,1968-09-19,Scottish,English,N/a,Retired,N/a,1,1,female
m5BBj,4,23,mal_plain,mal_sws,1,bath,table,teddy_bear,table,bath,teddy_bear,mal_plain_mal_sws,critical,1/10/2017,20:37,left,true,2362,2,1_2_2_0,word_3_word_1_word_2,different,bath,English_Speech,adult,megan,1968-09-19,Scottish,English,N/a,Retired,N/a,1,1,female
m5BBj,4,23,mal_plain,mal_sws,2,bath,table,teddy_bear,table,bath,teddy_bear,mal_plain_mal_sws,critical,1/10/2017,20:37,top_img,true,1687,2,1_2_2_0,word_3_word_1_word_2,different,table,English_Speech,adult,megan,1968-09-19,Scottish,English,N/a,Retired,N/a,1,1,female
m5BBj,4,23,mal_plain,mal_sws,3,bath,table,teddy_bear,table,bath,teddy_bear,mal_plain_mal_sws,critical,1/10/2017,20:37,right,true,1910,2,1_2_2_0,word_3_word_1_word_2,different,teddy_bear,English_Speech,adult,megan,1968-09-19,Scottish,English,N/a,Retired,N/a,1,1,female
m5BBj,5,22,mal_plain,mal_sws,1,bike,doctor,dog,bike,doctor,dog,mal_plain_mal_sws,critical,1/10/2017,20:37,top_img,true,2109,2,1_2_2_0,word_1_word_3_word_2,different,bike,English_Speech,adult,megan,1968-09-19,Scottish,English,N/a,Retired,N/a,1,1,female
m5BBj,5,22,mal_plain,mal_sws,2,bike,doctor,dog,bike,doctor,dog,mal_plain_mal_sws,critical,1/10/2017,20:37,right,false,1509,2,1_2_2_0,word_1_word_3_word_2,different,dog,English_Speech,adult,megan,1968-09-19,Scottish,English,N/a,Retired,N/a,1,1,female
m5BBj,5,22,mal_plain,mal_sws,3,bike,doctor,dog,bike,doctor,dog,mal_plain_mal_sws,critical,1/10/2017,20:37,right,true,1942,2,1_2_2_0,word_1_word_3_word_2,different,dog,English_Speech,adult,megan,1968-09-19,Scottish,English,N/a,Retired,N/a,1,1,female
m5BBj,6,19,mal_plain,mal_sws,1,tree,santa,building_blocks,tree,santa,building_blocks,mal_plain_mal_sws,critical,1/10/2017,20:37,top_img,true,1997,2,2_1_1_0,word_3_word_1_word_2,different,tree,English_Speech,adult,megan,1968-09-19,Scottish,English,N/a,Retired,N/a,1,1,female
m5BBj,6,19,mal_plain,mal_sws,2,tree,santa,building_blocks,tree,santa,building_blocks,mal_plain_mal_sws,critical,1/10/2017,20:37,left,true,2367,2,2_1_1_0,word_3_word_1_word_2,different,santa,English_Speech,adult,megan,1968-09-19,Scottish,English,N/a,Retired,N/a,1,1,female
m5BBj,6,19,mal_plain,mal_sws,3,tree,santa,building_blocks,tree,santa,building_blocks,mal_plain_mal_sws,critical,1/10/2017,20:37,right,true,2404,4,2_1_1_0,word_3_word_1_word_2,different,building_blocks,English_Speech,adult,megan,1968-09-19,Scottish,English,N/a,Retired,N/a,1,1,female
m5BBj,7,3,mal_plain,mal_sws,1,telephone,nose,nose,trousers,telephone,nose,mal_plain_mal_sws,critical,1/10/2017,20:37,left,true,2776,2,1_2_2_1,word_1_word_3_word_2,near,telephone,English_Speech,adult,megan,1968-09-19,Scottish,English,N/a,Retired,N/a,1,1,female
m5BBj,7,3,mal_plain,mal_sws,2,telephone,nose,nose,trousers,telephone,nose,mal_plain_mal_sws,critical,1/10/2017,20:37,right,true,2159,2,1_2_2_1,word_1_word_3_word_2,near,nose,English_Speech,adult,megan,1968-09-19,Scottish,English,N/a,Retired,N/a,1,1,female
m5BBj,7,3,mal_plain,mal_sws,3,telephone,nose,nose,trousers,telephone,nose,mal_plain_mal_sws,critical,1/10/2017,20:37,top_img,false,2352,2,1_2_2_1,word_1_word_3_word_2,near,trousers,English_Speech,adult,megan,1968-09-19,Scottish,English,N/a,Retired,N/a,1,1,female
m5BBj,8,10,mal_plain,mal_sws,1,tshirt,pig,pig,tshirt,hat,pig,mal_plain_mal_sws,critical,1/10/2017,20:37,top_img,true,2833,2,1_2_2_1,word_2_word_3_word_1,near,tshirt,English_Speech,adult,megan,1968-09-19,Scottish,English,N/a,Retired,N/a,1,1,female
m5BBj,8,10,mal_plain,mal_sws,2,tshirt,pig,pig,tshirt,hat,pig,mal_plain_mal_sws,critical,1/10/2017,20:37,right,true,2292,2,1_2_2_1,word_2_word_3_word_1,near,pig,English_Speech,adult,megan,1968-09-19,Scottish,English,N/a,Retired,N/a,1,1,female
m5BBj,8,10,mal_plain,mal_sws,3,tshirt,pig,pig,tshirt,hat,pig,mal_plain_mal_sws,critical,1/10/2017,20:37,right,true,2127,2,1_2_2_1,word_2_word_3_word_1,near,pig,English_Speech,adult,megan,1968-09-19,Scottish,English,N/a,Retired,N/a,1,1,female
m5BBj,9,7,mal_plain,mal_sws,1,lolly,horse,cat,horse,lolly,cat,mal_plain_mal_sws,critical,1/10/2017,20:37,left,true,2743,2,2_1_1_0,word_2_word_1_word_3,different,lolly,English_Speech,adult,megan,1968-09-19,Scottish,English,N/a,Retired,N/a,1,1,female
m5BBj,9,7,mal_plain,mal_sws,2,lolly,horse,cat,horse,lolly,cat,mal_plain_mal_sws,critical,1/10/2017,20:37,top_img,true,2334,2,2_1_1_0,word_2_word_1_word_3,different,horse,English_Speech,adult,megan,1968-09-19,Scottish,English,N/a,Retired,N/a,1,1,female
m5BBj,9,7,mal_plain,mal_sws,3,lolly,horse,cat,horse,lolly,cat,mal_plain_mal_sws,critical,1/10/2017,20:37,right,true,3691,4,2_1_1_0,word_2_word_1_word_3,different,cat,English_Speech,adult,megan,1968-09-19,Scottish,English,N/a,Retired,N/a,1,1,female
m5BBj,10,16,mal_plain,mal_sws,1,banana,paintbrush,paintbrush,paintbrush,chair,banana,mal_plain_mal_sws,critical,1/10/2017,20:37,right,true,2044,2,2_1_1_1,word_1_word_3_word_2,near,banana,English_Speech,adult,megan,1968-09-19,Scottish,English,N/a,Retired,N/a,1,1,female
m5BBj,10,16,mal_plain,mal_sws,2,banana,paintbrush,paintbrush,paintbrush,chair,banana,mal_plain_mal_sws,critical,1/10/2017,20:37,top_img,true,2632,2,2_1_1_1,word_1_word_3_word_2,near,paintbrush,English_Speech,adult,megan,1968-09-19,Scottish,English,N/a,Retired,N/a,1,1,female
m5BBj,10,16,mal_plain,mal_sws,3,banana,paintbrush,paintbrush,paintbrush,chair,banana,mal_plain_mal_sws,critical,1/10/2017,20:37,top_img,true,2647,2,2_1_1_1,word_1_word_3_word_2,near,paintbrush,English_Speech,adult,megan,1968-09-19,Scottish,English,N/a,Retired,N/a,1,1,female
m5BBj,11,18,mal_plain,mal_sws,1,ball,raspberry,raspberry,raspberry,ball,camera,mal_plain_mal_sws,critical,1/10/2017,20:37,left,true,2755,4,1_2_2_1,word_2_word_1_word_3,near,ball,English_Speech,adult,megan,1968-09-19,Scottish,English,N/a,Retired,N/a,1,1,female
m5BBj,11,18,mal_plain,mal_sws,2,ball,raspberry,raspberry,raspberry,ball,camera,mal_plain_mal_sws,critical,1/10/2017,20:37,top_img,true,2750,2,1_2_2_1,word_2_word_1_word_3,near,raspberry,English_Speech,adult,megan,1968-09-19,Scottish,English,N/a,Retired,N/a,1,1,female
m5BBj,11,18,mal_plain,mal_sws,3,ball,raspberry,raspberry,raspberry,ball,camera,mal_plain_mal_sws,critical,1/10/2017,20:37,top_img,true,3057,4,1_2_2_1,word_2_word_1_word_3,near,raspberry,English_Speech,adult,megan,1968-09-19,Scottish,English,N/a,Retired,N/a,1,1,female
m5BBj,12,24,mal_plain,mal_sws,1,sink,socks,fish,socks,fish,sink,mal_plain_mal_sws,critical,1/10/2017,20:37,right,true,2543,2,2_1_2_0,word_3_word_2_word_1,different,sink,English_Speech,adult,megan,1968-09-19,Scottish,English,N/a,Retired,N/a,1,1,female
m5BBj,12,24,mal_plain,mal_sws,2,sink,socks,fish,socks,fish,sink,mal_plain_mal_sws,critical,1/10/2017,20:37,top_img,true,2374,2,2_1_2_0,word_3_word_2_word_1,different,socks,English_Speech,adult,megan,1968-09-19,Scottish,English,N/a,Retired,N/a,1,1,female
m5BBj,12,24,mal_plain,mal_sws,3,sink,socks,fish,socks,fish,sink,mal_plain_mal_sws,critical,1/10/2017,20:37,right,false,2426,2,2_1_2_0,word_3_word_2_word_1,different,sink,English_Speech,adult,megan,1968-09-19,Scottish,English,N/a,Retired,N/a,1,1,female
m5BBj,13,2,mal_plain,mal_sws,1,chicken,fork,bed,bed,fork,chicken,mal_plain_mal_sws,critical,1/10/2017,20:37,right,true,2561,4,2_1_1_0,word_1_word_3_word_2,different,chicken,English_Speech,adult,megan,1968-09-19,Scottish,English,N/a,Retired,N/a,1,1,female
m5BBj,13,2,mal_plain,mal_sws,2,chicken,fork,bed,bed,fork,chicken,mal_plain_mal_sws,critical,1/10/2017,20:37,left,true,2053,2,2_1_1_0,word_1_word_3_word_2,different,fork,English_Speech,adult,megan,1968-09-19,Scottish,English,N/a,Retired,N/a,1,1,female
m5BBj,13,2,mal_plain,mal_sws,3,chicken,fork,bed,bed,fork,chicken,mal_plain_mal_sws,critical,1/10/2017,20:37,top_img,true,2560,2,2_1_1_0,word_1_word_3_word_2,different,bed,English_Speech,adult,megan,1968-09-19,Scottish,English,N/a,Retired,N/a,1,1,female
m5BBj,14,13,mal_plain,mal_sws,1,toothbrush,bread,toothbrush,airplane,bread,toothbrush,mal_plain_mal_sws,critical,1/10/2017,20:37,right,true,2178,2,2_1_2_1,word_2_word_3_word_1,far,toothbrush,English_Speech,adult,megan,1968-09-19,Scottish,English,N/a,Retired,N/a,1,1,female
m5BBj,14,13,mal_plain,mal_sws,2,toothbrush,bread,toothbrush,airplane,bread,toothbrush,mal_plain_mal_sws,critical,1/10/2017,20:37,left,true,2805,1,2_1_2_1,word_2_word_3_word_1,far,bread,English_Speech,adult,megan,1968-09-19,Scottish,English,N/a,Retired,N/a,1,1,female
m5BBj,14,13,mal_plain,mal_sws,3,toothbrush,bread,toothbrush,airplane,bread,toothbrush,mal_plain_mal_sws,critical,1/10/2017,20:37,right,true,3040,2,2_1_2_1,word_2_word_3_word_1,far,toothbrush,English_Speech,adult,megan,1968-09-19,Scottish,English,N/a,Retired,N/a,1,1,female
m5BBj,15,12,mal_plain,mal_sws,1,gloves,foot,foot,yoghurt,gloves,foot,mal_plain_mal_sws,critical,1/10/2017,20:37,left,true,2577,2,2_1_1_1,word_2_word_3_word_1,near,gloves,English_Speech,adult,megan,1968-09-19,Scottish,English,N/a,Retired,N/a,1,1,female
m5BBj,15,12,mal_plain,mal_sws,2,gloves,foot,foot,yoghurt,gloves,foot,mal_plain_mal_sws,critical,1/10/2017,20:37,right,true,1796,3,2_1_1_1,word_2_word_3_word_1,near,foot,English_Speech,adult,megan,1968-09-19,Scottish,English,N/a,Retired,N/a,1,1,female
m5BBj,15,12,mal_plain,mal_sws,3,gloves,foot,foot,yoghurt,gloves,foot,mal_plain_mal_sws,critical,1/10/2017,20:37,right,true,2139,2,2_1_1_1,word_2_word_3_word_1,near,foot,English_Speech,adult,megan,1968-09-19,Scottish,English,N/a,Retired,N/a,1,1,female
m5BBj,16,20,mal_plain,mal_sws,1,apple,rabbit,jumper,rabbit,apple,jumper,mal_plain_mal_sws,critical,1/10/2017,20:37,left,true,2286,2,2_1_1_0,word_2_word_3_word_1,different,apple,English_Speech,adult,megan,1968-09-19,Scottish,English,N/a,Retired,N/a,1,1,female
m5BBj,16,20,mal_plain,mal_sws,2,apple,rabbit,jumper,rabbit,apple,jumper,mal_plain_mal_sws,critical,1/10/2017,20:37,top_img,true,1555,2,2_1_1_0,word_2_word_3_word_1,different,rabbit,English_Speech,adult,megan,1968-09-19,Scottish,English,N/a,Retired,N/a,1,1,female
m5BBj,16,20,mal_plain,mal_sws,3,apple,rabbit,jumper,rabbit,apple,jumper,mal_plain_mal_sws,critical,1/10/2017,20:37,right,true,2013,2,2_1_1_0,word_2_word_3_word_1,different,jumper,English_Speech,adult,megan,1968-09-19,Scottish,English,N/a,Retired,N/a,1,1,female
m5BBj,17,1,mal_plain,mal_sws,1,baby,train,baby,spoon,baby,train,mal_plain_mal_sws,critical,1/10/2017,20:37,left,true,1680,3,1_2_1_1,word_1_word_2_word_3,far,baby,English_Speech,adult,megan,1968-09-19,Scottish,English,N/a,Retired,N/a,1,1,female
m5BBj,17,1,mal_plain,mal_sws,2,baby,train,baby,spoon,baby,train,mal_plain_mal_sws,critical,1/10/2017,20:37,right,true,1871,2,1_2_1_1,word_1_word_2_word_3,far,train,English_Speech,adult,megan,1968-09-19,Scottish,English,N/a,Retired,N/a,1,1,female
m5BBj,17,1,mal_plain,mal_sws,3,baby,train,baby,spoon,baby,train,mal_plain_mal_sws,critical,1/10/2017,20:37,left,true,1721,4,1_2_1_1,word_1_word_2_word_3,far,baby,English_Speech,adult,megan,1968-09-19,Scottish,English,N/a,Retired,N/a,1,1,female
m5BBj,18,9,mal_plain,mal_sws,1,window,grapes,pizza,window,grapes,pizza,mal_plain_mal_sws,critical,1/10/2017,20:37,top_img,true,1763,2,2_1_1_0,word_2_word_3_word_1,different,window,English_Speech,adult,megan,1968-09-19,Scottish,English,N/a,Retired,N/a,1,1,female
m5BBj,18,9,mal_plain,mal_sws,2,window,grapes,pizza,window,grapes,pizza,mal_plain_mal_sws,critical,1/10/2017,20:37,left,true,1786,4,2_1_1_0,word_2_word_3_word_1,different,grapes,English_Speech,adult,megan,1968-09-19,Scottish,English,N/a,Retired,N/a,1,1,female
m5BBj,18,9,mal_plain,mal_sws,3,window,grapes,pizza,window,grapes,pizza,mal_plain_mal_sws,critical,1/10/2017,20:37,right,true,2275,2,2_1_1_0,word_2_word_3_word_1,different,pizza,English_Speech,adult,megan,1968-09-19,Scottish,English,N/a,Retired,N/a,1,1,female
m5BBj,19,21,mal_plain,mal_sws,1,sheep,frog,eye,sheep,eye,frog,mal_plain_mal_sws,critical,1/10/2017,20:37,top_img,true,1933,2,1_2_2_0,word_2_word_3_word_1,different,sheep,English_Speech,adult,megan,1968-09-19,Scottish,English,N/a,Retired,N/a,1,1,female
m5BBj,19,21,mal_plain,mal_sws,2,sheep,frog,eye,sheep,eye,frog,mal_plain_mal_sws,critical,1/10/2017,20:37,right,true,3563,4,1_2_2_0,word_2_word_3_word_1,different,frog,English_Speech,adult,megan,1968-09-19,Scottish,English,N/a,Retired,N/a,1,1,female
m5BBj,19,21,mal_plain,mal_sws,3,sheep,frog,eye,sheep,eye,frog,mal_plain_mal_sws,critical,1/10/2017,20:37,left,true,1811,2,1_2_2_0,word_2_word_3_word_1,different,eye,English_Speech,adult,megan,1968-09-19,Scottish,English,N/a,Retired,N/a,1,1,female
m5BBj,20,15,mal_plain,mal_sws,1,beans,pencil,beans,slide,pencil,beans,mal_plain_mal_sws,critical,1/10/2017,20:37,right,true,1828,2,1_2_1_1,word_1_word_2_word_3,far,beans,English_Speech,adult,megan,1968-09-19,Scottish,English,N/a,Retired,N/a,1,1,female
m5BBj,20,15,mal_plain,mal_sws,2,beans,pencil,beans,slide,pencil,beans,mal_plain_mal_sws,critical,1/10/2017,20:37,left,true,1514,2,1_2_1_1,word_1_word_2_word_3,far,pencil,English_Speech,adult,megan,1968-09-19,Scottish,English,N/a,Retired,N/a,1,1,female
m5BBj,20,15,mal_plain,mal_sws,3,beans,pencil,beans,slide,pencil,beans,mal_plain_mal_sws,critical,1/10/2017,20:37,right,true,2173,1,1_2_1_1,word_1_word_2_word_3,far,beans,English_Speech,adult,megan,1968-09-19,Scottish,English,N/a,Retired,N/a,1,1,female
m5BBj,21,5,mal_plain,mal_sws,1,mouth,orange,car,car,mouth,orange,mal_plain_mal_sws,critical,1/10/2017,20:37,left,true,1598,2,2_1_2_0,word_2_word_3_word_1,different,mouth,English_Speech,adult,megan,1968-09-19,Scottish,English,N/a,Retired,N/a,1,1,female
m5BBj,21,5,mal_plain,mal_sws,2,mouth,orange,car,car,mouth,orange,mal_plain_mal_sws,critical,1/10/2017,20:37,right,true,2765,1,2_1_2_0,word_2_word_3_word_1,different,orange,English_Speech,adult,megan,1968-09-19,Scottish,English,N/a,Retired,N/a,1,1,female
m5BBj,21,5,mal_plain,mal_sws,3,mouth,orange,car,car,mouth,orange,mal_plain_mal_sws,critical,1/10/2017,20:37,top_img,true,1763,1,2_1_2_0,word_2_word_3_word_1,different,car,English_Speech,adult,megan,1968-09-19,Scottish,English,N/a,Retired,N/a,1,1,female
m5BBj,22,4,mal_plain,mal_sws,1,coat,flower,coat,coat,flower,strawberry,mal_plain_mal_sws,critical,1/10/2017,20:37,top_img,true,2070,2,1_2_1_1,word_1_word_3_word_2,far,coat,English_Speech,adult,megan,1968-09-19,Scottish,English,N/a,Retired,N/a,1,1,female
m5BBj,22,4,mal_plain,mal_sws,2,coat,flower,coat,coat,flower,strawberry,mal_plain_mal_sws,critical,1/10/2017,20:37,left,true,1450,2,1_2_1_1,word_1_word_3_word_2,far,flower,English_Speech,adult,megan,1968-09-19,Scottish,English,N/a,Retired,N/a,1,1,female
m5BBj,22,4,mal_plain,mal_sws,3,coat,flower,coat,coat,flower,strawberry,mal_plain_mal_sws,critical,1/10/2017,20:37,top_img,true,2404,1,1_2_1_1,word_1_word_3_word_2,far,coat,English_Speech,adult,megan,1968-09-19,Scottish,English,N/a,Retired,N/a,1,1,female
m5BBj,23,6,mal_plain,mal_sws,1,bird,carrot,carrot,bird,carrot,peas,mal_plain_mal_sws,critical,1/10/2017,20:37,top_img,true,1813,1,2_1_1_1,word_1_word_3_word_2,near,bird,English_Speech,adult,megan,1968-09-19,Scottish,English,N/a,Retired,N/a,1,1,female
m5BBj,23,6,mal_plain,mal_sws,2,bird,carrot,carrot,bird,carrot,peas,mal_plain_mal_sws,critical,1/10/2017,20:37,left,true,2102,2,2_1_1_1,word_1_word_3_word_2,near,carrot,English_Speech,adult,megan,1968-09-19,Scottish,English,N/a,Retired,N/a,1,1,female
m5BBj,23,6,mal_plain,mal_sws,3,bird,carrot,carrot,bird,carrot,peas,mal_plain_mal_sws,critical,1/10/2017,20:37,left,true,2110,3,2_1_1_1,word_1_word_3_word_2,near,carrot,English_Speech,adult,megan,1968-09-19,Scottish,English,N/a,Retired,N/a,1,1,female
m5BBj,24,14,mal_plain,mal_sws,1,door,shoes,door,shoes,cheese,door,mal_plain_mal_sws,critical,1/10/2017,20:37,right,true,1828,2,2_1_2_1,word_2_word_1_word_3,far,door,English_Speech,adult,megan,1968-09-19,Scottish,English,N/a,Retired,N/a,1,1,female
m5BBj,24,14,mal_plain,mal_sws,2,door,shoes,door,shoes,cheese,door,mal_plain_mal_sws,critical,1/10/2017,20:37,top_img,true,1991,2,2_1_2_1,word_2_word_1_word_3,far,shoes,English_Speech,adult,megan,1968-09-19,Scottish,English,N/a,Retired,N/a,1,1,female
m5BBj,24,14,mal_plain,mal_sws,3,door,shoes,door,shoes,cheese,door,mal_plain_mal_sws,critical,1/10/2017,20:37,right,true,1896,3,2_1_2_1,word_2_word_1_word_3,far,door,English_Speech,adult,megan,1968-09-19,Scottish,English,N/a,Retired,N/a,1,1,female
m5BBj,25,11,mal_plain,mal_sws,1,book,lorry,book,book,lorry,cow,mal_plain_mal_sws,critical,1/10/2017,20:37,top_img,true,1781,1,1_2_1_1,word_1_word_2_word_3,far,book,English_Speech,adult,megan,1968-09-19,Scottish,English,N/a,Retired,N/a,1,1,female
m5BBj,25,11,mal_plain,mal_sws,2,book,lorry,book,book,lorry,cow,mal_plain_mal_sws,critical,1/10/2017,20:37,left,true,1555,2,1_2_1_1,word_1_word_2_word_3,far,lorry,English_Speech,adult,megan,1968-09-19,Scottish,English,N/a,Retired,N/a,1,1,female
m5BBj,25,11,mal_plain,mal_sws,3,book,lorry,book,book,lorry,cow,mal_plain_mal_sws,critical,1/10/2017,20:37,top_img,true,1968,1,1_2_1_1,word_1_word_2_word_3,far,book,English_Speech,adult,megan,1968-09-19,Scottish,English,N/a,Retired,N/a,1,1,female
