subject_id,trial_number,trial_id,plain,sws,instruction_number,sound1_item,sound2_item,sound3_item,top_image,left_image,right_image,sound_gender,trial_type,date_stamp,time_stamp,side_chosen,accuracy,rt,play_counter,order,pic_position,distance,chosen_pic,test_lang,testing_loc,tester,date_of_birth,ethnicity,native_lang,other_langs,parental_occ,dev_info,birth_order,num_siblings,gender
o7bJu,1,0,mal_plain,fem_sws,1,tractor,fireman,glasses,fireman,tractor,glasses,mal_plain_fem_sws,training,1/5/2017,17:07,left,true,2053,4,1_2_2_0,word_1_word_3_word_2,different,tractor,English_Speech,adult,katy,,,,,,,,,female
o7bJu,1,0,mal_plain,fem_sws,2,tractor,fireman,glasses,fireman,tractor,glasses,mal_plain_fem_sws,training,1/5/2017,17:07,top_img,true,1579,3,1_2_2_0,word_1_word_3_word_2,different,fireman,English_Speech,adult,katy,,,,,,,,,female
o7bJu,1,0,mal_plain,fem_sws,3,tractor,fireman,glasses,fireman,tractor,glasses,mal_plain_fem_sws,training,1/5/2017,17:07,right,true,2309,4,1_2_2_0,word_1_word_3_word_2,different,glasses,English_Speech,adult,katy,,,,,,,,,female
o7bJu,2,20,mal_plain,fem_sws,1,rabbit,apple,jumper,apple,jumper,rabbit,mal_plain_fem_sws,critical,1/5/2017,17:07,right,true,1727,1,1_2_2_0,word_3_word_1_word_2,different,rabbit,English_Speech,adult,katy,,,,,,,,,female
o7bJu,2,20,mal_plain,fem_sws,2,rabbit,apple,jumper,apple,jumper,rabbit,mal_plain_fem_sws,critical,1/5/2017,17:07,top_img,true,1933,2,1_2_2_0,word_3_word_1_word_2,different,apple,English_Speech,adult,katy,,,,,,,,,female
o7bJu,2,20,mal_plain,fem_sws,3,rabbit,apple,jumper,apple,jumper,rabbit,mal_plain_fem_sws,critical,1/5/2017,17:07,left,true,1742,2,1_2_2_0,word_3_word_1_word_2,different,jumper,English_Speech,adult,katy,,,,,,,,,female
o7bJu,3,16,mal_plain,fem_sws,1,chair,banana,paintbrush,paintbrush,chair,banana,mal_plain_fem_sws,critical,1/5/2017,17:07,left,true,2877,2,2_1_1_0,word_1_word_3_word_2,different,chair,English_Speech,adult,katy,,,,,,,,,female
o7bJu,3,16,mal_plain,fem_sws,2,chair,banana,paintbrush,paintbrush,chair,banana,mal_plain_fem_sws,critical,1/5/2017,17:07,right,true,1992,4,2_1_1_0,word_1_word_3_word_2,different,banana,English_Speech,adult,katy,,,,,,,,,female
o7bJu,3,16,mal_plain,fem_sws,3,chair,banana,paintbrush,paintbrush,chair,banana,mal_plain_fem_sws,critical,1/5/2017,17:07,left,false,5052,8,2_1_1_0,word_1_word_3_word_2,different,chair,English_Speech,adult,katy,,,,,,,,,female
o7bJu,4,17,mal_plain,fem_sws,1,ambulance,hand,cake,ambulance,hand,cake,mal_plain_fem_sws,critical,1/5/2017,17:07,top_img,true,2300,2,1_2_2_0,word_2_word_3_word_1,different,ambulance,English_Speech,adult,katy,,,,,,,,,female
o7bJu,4,17,mal_plain,fem_sws,2,ambulance,hand,cake,ambulance,hand,cake,mal_plain_fem_sws,critical,1/5/2017,17:07,left,true,2251,2,1_2_2_0,word_2_word_3_word_1,different,hand,English_Speech,adult,katy,,,,,,,,,female
o7bJu,4,17,mal_plain,fem_sws,3,ambulance,hand,cake,ambulance,hand,cake,mal_plain_fem_sws,critical,1/5/2017,17:07,right,true,2361,4,1_2_2_0,word_2_word_3_word_1,different,cake,English_Speech,adult,katy,,,,,,,,,female
o7bJu,5,6,mal_plain,fem_sws,1,peas,carrot,carrot,bird,peas,carrot,mal_plain_fem_sws,critical,1/5/2017,17:07,left,true,3935,2,1_2_2_1,word_1_word_2_word_3,near,peas,English_Speech,adult,katy,,,,,,,,,female
o7bJu,5,6,mal_plain,fem_sws,2,peas,carrot,carrot,bird,peas,carrot,mal_plain_fem_sws,critical,1/5/2017,17:07,right,true,1982,1,1_2_2_1,word_1_word_2_word_3,near,carrot,English_Speech,adult,katy,,,,,,,,,female
o7bJu,5,6,mal_plain,fem_sws,3,peas,carrot,carrot,bird,peas,carrot,mal_plain_fem_sws,critical,1/5/2017,17:07,top_img,false,2312,2,1_2_2_1,word_1_word_2_word_3,near,bird,English_Speech,adult,katy,,,,,,,,,female
o7bJu,6,19,mal_plain,fem_sws,1,tree,building_blocks,building_blocks,tree,santa,building_blocks,mal_plain_fem_sws,critical,1/5/2017,17:07,top_img,true,2600,2,1_2_2_1,word_3_word_1_word_2,near,tree,English_Speech,adult,katy,,,,,,,,,female
o7bJu,6,19,mal_plain,fem_sws,2,tree,building_blocks,building_blocks,tree,santa,building_blocks,mal_plain_fem_sws,critical,1/5/2017,17:07,right,true,2504,2,1_2_2_1,word_3_word_1_word_2,near,building_blocks,English_Speech,adult,katy,,,,,,,,,female
o7bJu,6,19,mal_plain,fem_sws,3,tree,building_blocks,building_blocks,tree,santa,building_blocks,mal_plain_fem_sws,critical,1/5/2017,17:07,right,true,3232,4,1_2_2_1,word_3_word_1_word_2,near,building_blocks,English_Speech,adult,katy,,,,,,,,,female
o7bJu,7,8,mal_plain,fem_sws,1,fire_engine,ear,fire_engine,wellyboots,fire_engine,ear,mal_plain_fem_sws,critical,1/5/2017,17:07,left,true,2521,2,2_1_2_1,word_1_word_2_word_3,far,fire_engine,English_Speech,adult,katy,,,,,,,,,female
o7bJu,7,8,mal_plain,fem_sws,2,fire_engine,ear,fire_engine,wellyboots,fire_engine,ear,mal_plain_fem_sws,critical,1/5/2017,17:07,right,true,2090,2,2_1_2_1,word_1_word_2_word_3,far,ear,English_Speech,adult,katy,,,,,,,,,female
o7bJu,7,8,mal_plain,fem_sws,3,fire_engine,ear,fire_engine,wellyboots,fire_engine,ear,mal_plain_fem_sws,critical,1/5/2017,17:07,left,true,3360,1,2_1_2_1,word_1_word_2_word_3,far,fire_engine,English_Speech,adult,katy,,,,,,,,,female
o7bJu,8,9,mal_plain,fem_sws,1,grapes,window,pizza,window,grapes,pizza,mal_plain_fem_sws,critical,1/5/2017,17:07,left,true,2352,2,2_1_1_0,word_2_word_3_word_1,different,grapes,English_Speech,adult,katy,,,,,,,,,female
o7bJu,8,9,mal_plain,fem_sws,2,grapes,window,pizza,window,grapes,pizza,mal_plain_fem_sws,critical,1/5/2017,17:07,top_img,true,1447,2,2_1_1_0,word_2_word_3_word_1,different,window,English_Speech,adult,katy,,,,,,,,,female
o7bJu,8,9,mal_plain,fem_sws,3,grapes,window,pizza,window,grapes,pizza,mal_plain_fem_sws,critical,1/5/2017,17:07,right,true,2627,1,2_1_1_0,word_2_word_3_word_1,different,pizza,English_Speech,adult,katy,,,,,,,,,female
o7bJu,9,21,mal_plain,fem_sws,1,eye,frog,frog,frog,sheep,eye,mal_plain_fem_sws,critical,1/5/2017,17:07,right,true,2032,2,1_2_2_1,word_1_word_2_word_3,near,eye,English_Speech,adult,katy,,,,,,,,,female
o7bJu,9,21,mal_plain,fem_sws,2,eye,frog,frog,frog,sheep,eye,mal_plain_fem_sws,critical,1/5/2017,17:07,top_img,true,2581,1,1_2_2_1,word_1_word_2_word_3,near,frog,English_Speech,adult,katy,,,,,,,,,female
o7bJu,9,21,mal_plain,fem_sws,3,eye,frog,frog,frog,sheep,eye,mal_plain_fem_sws,critical,1/5/2017,17:07,top_img,true,2915,2,1_2_2_1,word_1_word_2_word_3,near,frog,English_Speech,adult,katy,,,,,,,,,female
o7bJu,10,22,mal_plain,fem_sws,1,dog,bike,dog,doctor,bike,dog,mal_plain_fem_sws,critical,1/5/2017,17:07,right,true,1697,1,2_1_2_1,word_3_word_1_word_2,far,dog,English_Speech,adult,katy,,,,,,,,,female
o7bJu,10,22,mal_plain,fem_sws,2,dog,bike,dog,doctor,bike,dog,mal_plain_fem_sws,critical,1/5/2017,17:07,left,true,2171,2,2_1_2_1,word_3_word_1_word_2,far,bike,English_Speech,adult,katy,,,,,,,,,female
o7bJu,10,22,mal_plain,fem_sws,3,dog,bike,dog,doctor,bike,dog,mal_plain_fem_sws,critical,1/5/2017,17:07,right,true,2183,2,2_1_2_1,word_3_word_1_word_2,far,dog,English_Speech,adult,katy,,,,,,,,,female
o7bJu,11,15,mal_plain,fem_sws,1,beans,slide,pencil,pencil,slide,beans,mal_plain_fem_sws,critical,1/5/2017,17:07,right,true,2090,2,2_1_1_0,word_2_word_1_word_3,different,beans,English_Speech,adult,katy,,,,,,,,,female
o7bJu,11,15,mal_plain,fem_sws,2,beans,slide,pencil,pencil,slide,beans,mal_plain_fem_sws,critical,1/5/2017,17:07,left,true,2795,2,2_1_1_0,word_2_word_1_word_3,different,slide,English_Speech,adult,katy,,,,,,,,,female
o7bJu,11,15,mal_plain,fem_sws,3,beans,slide,pencil,pencil,slide,beans,mal_plain_fem_sws,critical,1/5/2017,17:07,top_img,true,2115,2,2_1_1_0,word_2_word_1_word_3,different,pencil,English_Speech,adult,katy,,,,,,,,,female
o7bJu,12,2,mal_plain,fem_sws,1,chicken,fork,bed,bed,fork,chicken,mal_plain_fem_sws,critical,1/5/2017,17:07,right,true,2317,2,2_1_2_0,word_1_word_3_word_2,different,chicken,English_Speech,adult,katy,,,,,,,,,female
o7bJu,12,2,mal_plain,fem_sws,2,chicken,fork,bed,bed,fork,chicken,mal_plain_fem_sws,critical,1/5/2017,17:07,left,true,1832,4,2_1_2_0,word_1_word_3_word_2,different,fork,English_Speech,adult,katy,,,,,,,,,female
o7bJu,12,2,mal_plain,fem_sws,3,chicken,fork,bed,bed,fork,chicken,mal_plain_fem_sws,critical,1/5/2017,17:07,top_img,true,2885,4,2_1_2_0,word_1_word_3_word_2,different,bed,English_Speech,adult,katy,,,,,,,,,female
o7bJu,13,3,mal_plain,fem_sws,1,telephone,trousers,nose,trousers,telephone,nose,mal_plain_fem_sws,critical,1/5/2017,17:07,left,true,2738,2,2_1_1_0,word_1_word_3_word_2,different,telephone,English_Speech,adult,katy,,,,,,,,,female
o7bJu,13,3,mal_plain,fem_sws,2,telephone,trousers,nose,trousers,telephone,nose,mal_plain_fem_sws,critical,1/5/2017,17:07,top_img,true,1941,2,2_1_1_0,word_1_word_3_word_2,different,trousers,English_Speech,adult,katy,,,,,,,,,female
o7bJu,13,3,mal_plain,fem_sws,3,telephone,trousers,nose,trousers,telephone,nose,mal_plain_fem_sws,critical,1/5/2017,17:07,right,true,2264,2,2_1_1_0,word_1_word_3_word_2,different,nose,English_Speech,adult,katy,,,,,,,,,female
o7bJu,14,1,mal_plain,fem_sws,1,spoon,baby,train,baby,train,spoon,mal_plain_fem_sws,critical,1/5/2017,17:07,right,true,1771,2,2_1_1_0,word_2_word_3_word_1,different,spoon,English_Speech,adult,katy,,,,,,,,,female
o7bJu,14,1,mal_plain,fem_sws,2,spoon,baby,train,baby,train,spoon,mal_plain_fem_sws,critical,1/5/2017,17:07,top_img,true,1569,4,2_1_1_0,word_2_word_3_word_1,different,baby,English_Speech,adult,katy,,,,,,,,,female
o7bJu,14,1,mal_plain,fem_sws,3,spoon,baby,train,baby,train,spoon,mal_plain_fem_sws,critical,1/5/2017,17:07,left,true,2638,2,2_1_1_0,word_2_word_3_word_1,different,train,English_Speech,adult,katy,,,,,,,,,female
o7bJu,15,10,mal_plain,fem_sws,1,tshirt,hat,hat,tshirt,pig,hat,mal_plain_fem_sws,critical,1/5/2017,17:07,top_img,true,2730,2,2_1_1_1,word_2_word_1_word_3,near,tshirt,English_Speech,adult,katy,,,,,,,,,female
o7bJu,15,10,mal_plain,fem_sws,2,tshirt,hat,hat,tshirt,pig,hat,mal_plain_fem_sws,critical,1/5/2017,17:07,right,true,1873,2,2_1_1_1,word_2_word_1_word_3,near,hat,English_Speech,adult,katy,,,,,,,,,female
o7bJu,15,10,mal_plain,fem_sws,3,tshirt,hat,hat,tshirt,pig,hat,mal_plain_fem_sws,critical,1/5/2017,17:07,right,true,2190,1,2_1_1_1,word_2_word_1_word_3,near,hat,English_Speech,adult,katy,,,,,,,,,female
o7bJu,16,5,mal_plain,fem_sws,1,mouth,car,car,car,mouth,orange,mal_plain_fem_sws,critical,1/5/2017,17:07,left,true,1892,2,2_1_1_1,word_2_word_3_word_1,near,mouth,English_Speech,adult,katy,,,,,,,,,female
o7bJu,16,5,mal_plain,fem_sws,2,mouth,car,car,car,mouth,orange,mal_plain_fem_sws,critical,1/5/2017,17:07,top_img,true,1523,1,2_1_1_1,word_2_word_3_word_1,near,car,English_Speech,adult,katy,,,,,,,,,female
o7bJu,16,5,mal_plain,fem_sws,3,mouth,car,car,car,mouth,orange,mal_plain_fem_sws,critical,1/5/2017,17:07,top_img,true,2037,4,2_1_1_1,word_2_word_3_word_1,near,car,English_Speech,adult,katy,,,,,,,,,female
o7bJu,17,4,mal_plain,fem_sws,1,coat,flower,coat,strawberry,flower,coat,mal_plain_fem_sws,critical,1/5/2017,17:07,right,true,2102,2,1_2_1_1,word_2_word_3_word_1,far,coat,English_Speech,adult,katy,,,,,,,,,female
o7bJu,17,4,mal_plain,fem_sws,2,coat,flower,coat,strawberry,flower,coat,mal_plain_fem_sws,critical,1/5/2017,17:07,left,true,1423,3,1_2_1_1,word_2_word_3_word_1,far,flower,English_Speech,adult,katy,,,,,,,,,female
o7bJu,17,4,mal_plain,fem_sws,3,coat,flower,coat,strawberry,flower,coat,mal_plain_fem_sws,critical,1/5/2017,17:07,right,true,2358,4,1_2_1_1,word_2_word_3_word_1,far,coat,English_Speech,adult,katy,,,,,,,,,female
o7bJu,18,7,mal_plain,fem_sws,1,horse,cat,lolly,lolly,cat,horse,mal_plain_fem_sws,critical,1/5/2017,17:07,right,true,2268,2,2_1_1_0,word_1_word_3_word_2,different,horse,English_Speech,adult,katy,,,,,,,,,female
o7bJu,18,7,mal_plain,fem_sws,2,horse,cat,lolly,lolly,cat,horse,mal_plain_fem_sws,critical,1/5/2017,17:07,left,true,2264,3,2_1_1_0,word_1_word_3_word_2,different,cat,English_Speech,adult,katy,,,,,,,,,female
o7bJu,18,7,mal_plain,fem_sws,3,horse,cat,lolly,lolly,cat,horse,mal_plain_fem_sws,critical,1/5/2017,17:07,top_img,true,3208,2,2_1_1_0,word_1_word_3_word_2,different,lolly,English_Speech,adult,katy,,,,,,,,,female
o7bJu,19,18,mal_plain,fem_sws,1,raspberry,camera,camera,raspberry,camera,ball,mal_plain_fem_sws,critical,1/5/2017,17:07,top_img,true,2991,2,2_1_1_1,word_2_word_3_word_1,near,raspberry,English_Speech,adult,katy,,,,,,,,,female
o7bJu,19,18,mal_plain,fem_sws,2,raspberry,camera,camera,raspberry,camera,ball,mal_plain_fem_sws,critical,1/5/2017,17:07,left,true,1674,2,2_1_1_1,word_2_word_3_word_1,near,camera,English_Speech,adult,katy,,,,,,,,,female
o7bJu,19,18,mal_plain,fem_sws,3,raspberry,camera,camera,raspberry,camera,ball,mal_plain_fem_sws,critical,1/5/2017,17:07,left,true,2236,4,2_1_1_1,word_2_word_3_word_1,near,camera,English_Speech,adult,katy,,,,,,,,,female
o7bJu,20,24,mal_plain,fem_sws,1,socks,sink,fish,socks,fish,sink,mal_plain_fem_sws,critical,1/5/2017,17:07,top_img,true,2178,2,2_1_2_0,word_3_word_2_word_1,different,socks,English_Speech,adult,katy,,,,,,,,,female
o7bJu,20,24,mal_plain,fem_sws,2,socks,sink,fish,socks,fish,sink,mal_plain_fem_sws,critical,1/5/2017,17:07,right,true,3082,1,2_1_2_0,word_3_word_2_word_1,different,sink,English_Speech,adult,katy,,,,,,,,,female
o7bJu,20,24,mal_plain,fem_sws,3,socks,sink,fish,socks,fish,sink,mal_plain_fem_sws,critical,1/5/2017,17:07,right,false,10930,11,2_1_2_0,word_3_word_2_word_1,different,sink,English_Speech,adult,katy,,,,,,,,,female
o7bJu,21,14,mal_plain,fem_sws,1,cheese,door,shoes,cheese,shoes,door,mal_plain_fem_sws,critical,1/5/2017,17:07,top_img,true,2218,2,2_1_2_0,word_1_word_2_word_3,different,cheese,English_Speech,adult,katy,,,,,,,,,female
o7bJu,21,14,mal_plain,fem_sws,2,cheese,door,shoes,cheese,shoes,door,mal_plain_fem_sws,critical,1/5/2017,17:07,right,true,1838,1,2_1_2_0,word_1_word_2_word_3,different,door,English_Speech,adult,katy,,,,,,,,,female
o7bJu,21,14,mal_plain,fem_sws,3,cheese,door,shoes,cheese,shoes,door,mal_plain_fem_sws,critical,1/5/2017,17:07,left,true,2582,2,2_1_2_0,word_1_word_2_word_3,different,shoes,English_Speech,adult,katy,,,,,,,,,female
o7bJu,22,13,mal_plain,fem_sws,1,airplane,toothbrush,airplane,airplane,bread,toothbrush,mal_plain_fem_sws,critical,1/5/2017,17:07,top_img,true,1756,2,1_2_1_1,word_2_word_3_word_1,far,airplane,English_Speech,adult,katy,,,,,,,,,female
o7bJu,22,13,mal_plain,fem_sws,2,airplane,toothbrush,airplane,airplane,bread,toothbrush,mal_plain_fem_sws,critical,1/5/2017,17:07,right,true,1749,2,1_2_1_1,word_2_word_3_word_1,far,toothbrush,English_Speech,adult,katy,,,,,,,,,female
o7bJu,22,13,mal_plain,fem_sws,3,airplane,toothbrush,airplane,airplane,bread,toothbrush,mal_plain_fem_sws,critical,1/5/2017,17:07,top_img,true,2481,4,1_2_1_1,word_2_word_3_word_1,far,airplane,English_Speech,adult,katy,,,,,,,,,female
o7bJu,23,23,mal_plain,fem_sws,1,table,teddy_bear,table,teddy_bear,bath,table,mal_plain_fem_sws,critical,1/5/2017,17:07,right,true,2360,2,1_2_1_1,word_2_word_1_word_3,far,table,English_Speech,adult,katy,,,,,,,,,female
o7bJu,23,23,mal_plain,fem_sws,2,table,teddy_bear,table,teddy_bear,bath,table,mal_plain_fem_sws,critical,1/5/2017,17:07,top_img,true,1787,2,1_2_1_1,word_2_word_1_word_3,far,teddy_bear,English_Speech,adult,katy,,,,,,,,,female
o7bJu,23,23,mal_plain,fem_sws,3,table,teddy_bear,table,teddy_bear,bath,table,mal_plain_fem_sws,critical,1/5/2017,17:07,right,true,2440,2,1_2_1_1,word_2_word_1_word_3,far,table,English_Speech,adult,katy,,,,,,,,,female
o7bJu,24,12,mal_plain,fem_sws,1,yoghurt,gloves,yoghurt,gloves,foot,yoghurt,mal_plain_fem_sws,critical,1/5/2017,17:07,right,true,1974,2,2_1_2_1,word_3_word_1_word_2,far,yoghurt,English_Speech,adult,katy,,,,,,,,,female
o7bJu,24,12,mal_plain,fem_sws,2,yoghurt,gloves,yoghurt,gloves,foot,yoghurt,mal_plain_fem_sws,critical,1/5/2017,17:07,top_img,true,2084,2,2_1_2_1,word_3_word_1_word_2,far,gloves,English_Speech,adult,katy,,,,,,,,,female
o7bJu,24,12,mal_plain,fem_sws,3,yoghurt,gloves,yoghurt,gloves,foot,yoghurt,mal_plain_fem_sws,critical,1/5/2017,17:07,right,true,2301,2,2_1_2_1,word_3_word_1_word_2,far,yoghurt,English_Speech,adult,katy,,,,,,,,,female
o7bJu,25,11,mal_plain,fem_sws,1,cow,lorry,cow,book,lorry,cow,mal_plain_fem_sws,critical,1/5/2017,17:07,right,true,2148,2,1_2_1_1,word_1_word_2_word_3,far,cow,English_Speech,adult,katy,,,,,,,,,female
o7bJu,25,11,mal_plain,fem_sws,2,cow,lorry,cow,book,lorry,cow,mal_plain_fem_sws,critical,1/5/2017,17:07,left,true,1458,2,1_2_1_1,word_1_word_2_word_3,far,lorry,English_Speech,adult,katy,,,,,,,,,female
o7bJu,25,11,mal_plain,fem_sws,3,cow,lorry,cow,book,lorry,cow,mal_plain_fem_sws,critical,1/5/2017,17:07,right,true,2784,2,1_2_1_1,word_1_word_2_word_3,far,cow,English_Speech,adult,katy,,,,,,,,,female
