subject_id,trial_number,trial_id,plain,sws,instruction_number,sound1_item,sound2_item,sound3_item,top_image,left_image,right_image,sound_gender,trial_type,date_stamp,time_stamp,side_chosen,accuracy,rt,play_counter,order,pic_position,distance,chosen_pic,test_lang,testing_loc,tester,date_of_birth,ethnicity,native_lang,other_langs,parental_occ,dev_info,birth_order,num_siblings,gender
X8Y4g,1,0,fem_plain,fem_sws,1,tractor,fireman,glasses,glasses,tractor,fireman,fem_plain_fem_sws,training,2/23/2017,14:37,left,true,3184,1,1_2_2_0,word_2_word_3_word_1,different,tractor,English_Speech,adult,megan,,,,,,,,,female
X8Y4g,1,0,fem_plain,fem_sws,2,tractor,fireman,glasses,glasses,tractor,fireman,fem_plain_fem_sws,training,2/23/2017,14:37,right,true,2325,1,1_2_2_0,word_2_word_3_word_1,different,fireman,English_Speech,adult,megan,,,,,,,,,female
X8Y4g,1,0,fem_plain,fem_sws,3,tractor,fireman,glasses,glasses,tractor,fireman,fem_plain_fem_sws,training,2/23/2017,14:37,top_img,true,3884,1,1_2_2_0,word_2_word_3_word_1,different,glasses,English_Speech,adult,megan,,,,,,,,,female
X8Y4g,2,13,fem_plain,fem_sws,1,toothbrush,airplane,bread,bread,toothbrush,airplane,fem_plain_fem_sws,critical,2/23/2017,14:37,left,true,2469,1,2_1_1_0,word_3_word_1_word_2,different,toothbrush,English_Speech,adult,megan,,,,,,,,,female
X8Y4g,2,13,fem_plain,fem_sws,2,toothbrush,airplane,bread,bread,toothbrush,airplane,fem_plain_fem_sws,critical,2/23/2017,14:37,right,true,2154,1,2_1_1_0,word_3_word_1_word_2,different,airplane,English_Speech,adult,megan,,,,,,,,,female
X8Y4g,2,13,fem_plain,fem_sws,3,toothbrush,airplane,bread,bread,toothbrush,airplane,fem_plain_fem_sws,critical,2/23/2017,14:37,top_img,true,3349,1,2_1_1_0,word_3_word_1_word_2,different,bread,English_Speech,adult,megan,,,,,,,,,female
X8Y4g,3,11,fem_plain,fem_sws,1,lorry,book,book,cow,book,lorry,fem_plain_fem_sws,critical,2/23/2017,14:37,right,true,2094,1,1_2_2_1,word_3_word_1_word_2,near,lorry,English_Speech,adult,megan,,,,,,,,,female
X8Y4g,3,11,fem_plain,fem_sws,2,lorry,book,book,cow,book,lorry,fem_plain_fem_sws,critical,2/23/2017,14:37,left,true,2585,1,1_2_2_1,word_3_word_1_word_2,near,book,English_Speech,adult,megan,,,,,,,,,female
X8Y4g,3,11,fem_plain,fem_sws,3,lorry,book,book,cow,book,lorry,fem_plain_fem_sws,critical,2/23/2017,14:37,top_img,false,4056,1,1_2_2_1,word_3_word_1_word_2,near,cow,English_Speech,adult,megan,,,,,,,,,female
X8Y4g,4,7,fem_plain,fem_sws,1,cat,horse,lolly,lolly,cat,horse,fem_plain_fem_sws,critical,2/23/2017,14:37,left,true,3014,1,2_1_1_0,word_1_word_3_word_2,different,cat,English_Speech,adult,megan,,,,,,,,,female
X8Y4g,4,7,fem_plain,fem_sws,2,cat,horse,lolly,lolly,cat,horse,fem_plain_fem_sws,critical,2/23/2017,14:37,right,true,1988,1,2_1_1_0,word_1_word_3_word_2,different,horse,English_Speech,adult,megan,,,,,,,,,female
X8Y4g,4,7,fem_plain,fem_sws,3,cat,horse,lolly,lolly,cat,horse,fem_plain_fem_sws,critical,2/23/2017,14:37,top_img,true,3216,1,2_1_1_0,word_1_word_3_word_2,different,lolly,English_Speech,adult,megan,,,,,,,,,female
X8Y4g,5,17,fem_plain,fem_sws,1,cake,hand,cake,cake,hand,ambulance,fem_plain_fem_sws,critical,2/23/2017,14:37,top_img,true,2507,1,1_2_1_1,word_1_word_3_word_2,far,cake,English_Speech,adult,megan,,,,,,,,,female
X8Y4g,5,17,fem_plain,fem_sws,2,cake,hand,cake,cake,hand,ambulance,fem_plain_fem_sws,critical,2/23/2017,14:37,left,true,2738,1,1_2_1_1,word_1_word_3_word_2,far,hand,English_Speech,adult,megan,,,,,,,,,female
X8Y4g,5,17,fem_plain,fem_sws,3,cake,hand,cake,cake,hand,ambulance,fem_plain_fem_sws,critical,2/23/2017,14:37,top_img,true,2990,2,1_2_1_1,word_1_word_3_word_2,far,cake,English_Speech,adult,megan,,,,,,,,,female
X8Y4g,6,14,fem_plain,fem_sws,1,cheese,door,shoes,shoes,door,cheese,fem_plain_fem_sws,critical,2/23/2017,14:37,right,true,2169,1,2_1_2_0,word_2_word_3_word_1,different,cheese,English_Speech,adult,megan,,,,,,,,,female
X8Y4g,6,14,fem_plain,fem_sws,2,cheese,door,shoes,shoes,door,cheese,fem_plain_fem_sws,critical,2/23/2017,14:37,left,true,1910,1,2_1_2_0,word_2_word_3_word_1,different,door,English_Speech,adult,megan,,,,,,,,,female
X8Y4g,6,14,fem_plain,fem_sws,3,cheese,door,shoes,shoes,door,cheese,fem_plain_fem_sws,critical,2/23/2017,14:37,top_img,true,2448,1,2_1_2_0,word_2_word_3_word_1,different,shoes,English_Speech,adult,megan,,,,,,,,,female
X8Y4g,7,6,fem_plain,fem_sws,1,peas,bird,peas,peas,bird,carrot,fem_plain_fem_sws,critical,2/23/2017,14:37,top_img,true,1851,1,2_1_2_1,word_2_word_1_word_3,far,peas,English_Speech,adult,megan,,,,,,,,,female
X8Y4g,7,6,fem_plain,fem_sws,2,peas,bird,peas,peas,bird,carrot,fem_plain_fem_sws,critical,2/23/2017,14:37,left,true,2185,1,2_1_2_1,word_2_word_1_word_3,far,bird,English_Speech,adult,megan,,,,,,,,,female
X8Y4g,7,6,fem_plain,fem_sws,3,peas,bird,peas,peas,bird,carrot,fem_plain_fem_sws,critical,2/23/2017,14:37,top_img,true,2236,1,2_1_2_1,word_2_word_1_word_3,far,peas,English_Speech,adult,megan,,,,,,,,,female
X8Y4g,8,3,fem_plain,fem_sws,1,telephone,trousers,trousers,trousers,nose,telephone,fem_plain_fem_sws,critical,2/23/2017,14:37,right,true,2734,1,1_2_2_1,word_1_word_2_word_3,near,telephone,English_Speech,adult,megan,,,,,,,,,female
X8Y4g,8,3,fem_plain,fem_sws,2,telephone,trousers,trousers,trousers,nose,telephone,fem_plain_fem_sws,critical,2/23/2017,14:37,top_img,true,1907,1,1_2_2_1,word_1_word_2_word_3,near,trousers,English_Speech,adult,megan,,,,,,,,,female
X8Y4g,8,3,fem_plain,fem_sws,3,telephone,trousers,trousers,trousers,nose,telephone,fem_plain_fem_sws,critical,2/23/2017,14:37,top_img,true,2022,1,1_2_2_1,word_1_word_2_word_3,near,trousers,English_Speech,adult,megan,,,,,,,,,female
X8Y4g,9,23,fem_plain,fem_sws,1,table,bath,bath,teddy_bear,table,bath,fem_plain_fem_sws,critical,2/23/2017,14:37,left,true,2437,1,2_1_1_1,word_2_word_3_word_1,near,table,English_Speech,adult,megan,,,,,,,,,female
X8Y4g,9,23,fem_plain,fem_sws,2,table,bath,bath,teddy_bear,table,bath,fem_plain_fem_sws,critical,2/23/2017,14:37,right,true,2679,1,2_1_1_1,word_2_word_3_word_1,near,bath,English_Speech,adult,megan,,,,,,,,,female
X8Y4g,9,23,fem_plain,fem_sws,3,table,bath,bath,teddy_bear,table,bath,fem_plain_fem_sws,critical,2/23/2017,14:37,right,true,2603,1,2_1_1_1,word_2_word_3_word_1,near,bath,English_Speech,adult,megan,,,,,,,,,female
X8Y4g,10,24,fem_plain,fem_sws,1,socks,fish,socks,socks,fish,sink,fem_plain_fem_sws,critical,2/23/2017,14:37,top_img,true,2042,1,1_2_1_1,word_3_word_2_word_1,far,socks,English_Speech,adult,megan,,,,,,,,,female
X8Y4g,10,24,fem_plain,fem_sws,2,socks,fish,socks,socks,fish,sink,fem_plain_fem_sws,critical,2/23/2017,14:37,left,true,2112,1,1_2_1_1,word_3_word_2_word_1,far,fish,English_Speech,adult,megan,,,,,,,,,female
X8Y4g,10,24,fem_plain,fem_sws,3,socks,fish,socks,socks,fish,sink,fem_plain_fem_sws,critical,2/23/2017,14:37,top_img,true,2436,1,1_2_1_1,word_3_word_2_word_1,far,socks,English_Speech,adult,megan,,,,,,,,,female
X8Y4g,11,8,fem_plain,fem_sws,1,fire_engine,ear,ear,fire_engine,ear,wellyboots,fem_plain_fem_sws,critical,2/23/2017,14:37,top_img,true,2918,1,2_1_1_1,word_2_word_3_word_1,near,fire_engine,English_Speech,adult,megan,,,,,,,,,female
X8Y4g,11,8,fem_plain,fem_sws,2,fire_engine,ear,ear,fire_engine,ear,wellyboots,fem_plain_fem_sws,critical,2/23/2017,14:37,left,true,2214,1,2_1_1_1,word_2_word_3_word_1,near,ear,English_Speech,adult,megan,,,,,,,,,female
X8Y4g,11,8,fem_plain,fem_sws,3,fire_engine,ear,ear,fire_engine,ear,wellyboots,fem_plain_fem_sws,critical,2/23/2017,14:37,left,true,2259,1,2_1_1_1,word_2_word_3_word_1,near,ear,English_Speech,adult,megan,,,,,,,,,female
X8Y4g,12,2,fem_plain,fem_sws,1,fork,chicken,chicken,fork,bed,chicken,fem_plain_fem_sws,critical,2/23/2017,14:37,top_img,true,1791,1,2_1_1_1,word_3_word_1_word_2,near,fork,English_Speech,adult,megan,,,,,,,,,female
X8Y4g,12,2,fem_plain,fem_sws,2,fork,chicken,chicken,fork,bed,chicken,fem_plain_fem_sws,critical,2/23/2017,14:37,right,true,2391,1,2_1_1_1,word_3_word_1_word_2,near,chicken,English_Speech,adult,megan,,,,,,,,,female
X8Y4g,12,2,fem_plain,fem_sws,3,fork,chicken,chicken,fork,bed,chicken,fem_plain_fem_sws,critical,2/23/2017,14:37,right,true,2675,1,2_1_1_1,word_3_word_1_word_2,near,chicken,English_Speech,adult,megan,,,,,,,,,female
X8Y4g,13,20,fem_plain,fem_sws,1,jumper,apple,rabbit,rabbit,apple,jumper,fem_plain_fem_sws,critical,2/23/2017,14:37,right,true,1893,1,1_2_2_0,word_2_word_3_word_1,different,jumper,English_Speech,adult,megan,,,,,,,,,female
X8Y4g,13,20,fem_plain,fem_sws,2,jumper,apple,rabbit,rabbit,apple,jumper,fem_plain_fem_sws,critical,2/23/2017,14:37,left,true,2225,1,1_2_2_0,word_2_word_3_word_1,different,apple,English_Speech,adult,megan,,,,,,,,,female
X8Y4g,13,20,fem_plain,fem_sws,3,jumper,apple,rabbit,rabbit,apple,jumper,fem_plain_fem_sws,critical,2/23/2017,14:37,top_img,true,1997,1,1_2_2_0,word_2_word_3_word_1,different,rabbit,English_Speech,adult,megan,,,,,,,,,female
X8Y4g,14,5,fem_plain,fem_sws,1,mouth,car,car,orange,car,mouth,fem_plain_fem_sws,critical,2/23/2017,14:37,right,true,1761,1,1_2_2_1,word_1_word_2_word_3,near,mouth,English_Speech,adult,megan,,,,,,,,,female
X8Y4g,14,5,fem_plain,fem_sws,2,mouth,car,car,orange,car,mouth,fem_plain_fem_sws,critical,2/23/2017,14:37,left,true,1593,1,1_2_2_1,word_1_word_2_word_3,near,car,English_Speech,adult,megan,,,,,,,,,female
X8Y4g,14,5,fem_plain,fem_sws,3,mouth,car,car,orange,car,mouth,fem_plain_fem_sws,critical,2/23/2017,14:37,left,true,1806,1,1_2_2_1,word_1_word_2_word_3,near,car,English_Speech,adult,megan,,,,,,,,,female
X8Y4g,15,19,fem_plain,fem_sws,1,tree,santa,building_blocks,tree,building_blocks,santa,fem_plain_fem_sws,critical,2/23/2017,14:37,top_img,true,1868,1,1_2_2_0,word_3_word_2_word_1,different,tree,English_Speech,adult,megan,,,,,,,,,female
X8Y4g,15,19,fem_plain,fem_sws,2,tree,santa,building_blocks,tree,building_blocks,santa,fem_plain_fem_sws,critical,2/23/2017,14:37,right,true,2917,1,1_2_2_0,word_3_word_2_word_1,different,santa,English_Speech,adult,megan,,,,,,,,,female
X8Y4g,15,19,fem_plain,fem_sws,3,tree,santa,building_blocks,tree,building_blocks,santa,fem_plain_fem_sws,critical,2/23/2017,14:37,left,true,2582,1,1_2_2_0,word_3_word_2_word_1,different,building_blocks,English_Speech,adult,megan,,,,,,,,,female
X8Y4g,16,12,fem_plain,fem_sws,1,gloves,foot,yoghurt,yoghurt,foot,gloves,fem_plain_fem_sws,critical,2/23/2017,14:37,right,true,2795,1,2_1_2_0,word_2_word_1_word_3,different,gloves,English_Speech,adult,megan,,,,,,,,,female
X8Y4g,16,12,fem_plain,fem_sws,2,gloves,foot,yoghurt,yoghurt,foot,gloves,fem_plain_fem_sws,critical,2/23/2017,14:37,left,true,1695,1,2_1_2_0,word_2_word_1_word_3,different,foot,English_Speech,adult,megan,,,,,,,,,female
X8Y4g,16,12,fem_plain,fem_sws,3,gloves,foot,yoghurt,yoghurt,foot,gloves,fem_plain_fem_sws,critical,2/23/2017,14:37,top_img,true,2160,1,2_1_2_0,word_2_word_1_word_3,different,yoghurt,English_Speech,adult,megan,,,,,,,,,female
X8Y4g,17,10,fem_plain,fem_sws,1,tshirt,hat,tshirt,tshirt,pig,hat,fem_plain_fem_sws,critical,2/23/2017,14:37,top_img,true,2727,1,2_1_2_1,word_2_word_1_word_3,far,tshirt,English_Speech,adult,megan,,,,,,,,,female
X8Y4g,17,10,fem_plain,fem_sws,2,tshirt,hat,tshirt,tshirt,pig,hat,fem_plain_fem_sws,critical,2/23/2017,14:37,right,true,1802,1,2_1_2_1,word_2_word_1_word_3,far,hat,English_Speech,adult,megan,,,,,,,,,female
X8Y4g,17,10,fem_plain,fem_sws,3,tshirt,hat,tshirt,tshirt,pig,hat,fem_plain_fem_sws,critical,2/23/2017,14:37,top_img,true,2715,1,2_1_2_1,word_2_word_1_word_3,far,tshirt,English_Speech,adult,megan,,,,,,,,,female
X8Y4g,18,21,fem_plain,fem_sws,1,eye,frog,sheep,frog,eye,sheep,fem_plain_fem_sws,critical,2/23/2017,14:37,left,true,2899,1,2_1_2_0,word_1_word_3_word_2,different,eye,English_Speech,adult,megan,,,,,,,,,female
X8Y4g,18,21,fem_plain,fem_sws,2,eye,frog,sheep,frog,eye,sheep,fem_plain_fem_sws,critical,2/23/2017,14:37,top_img,true,2420,1,2_1_2_0,word_1_word_3_word_2,different,frog,English_Speech,adult,megan,,,,,,,,,female
X8Y4g,18,21,fem_plain,fem_sws,3,eye,frog,sheep,frog,eye,sheep,fem_plain_fem_sws,critical,2/23/2017,14:37,right,true,1910,1,2_1_2_0,word_1_word_3_word_2,different,sheep,English_Speech,adult,megan,,,,,,,,,female
X8Y4g,19,9,fem_plain,fem_sws,1,window,pizza,window,pizza,grapes,window,fem_plain_fem_sws,critical,2/23/2017,14:37,right,true,1806,1,1_2_1_1,word_1_word_3_word_2,far,window,English_Speech,adult,megan,,,,,,,,,female
X8Y4g,19,9,fem_plain,fem_sws,2,window,pizza,window,pizza,grapes,window,fem_plain_fem_sws,critical,2/23/2017,14:37,top_img,true,2018,1,1_2_1_1,word_1_word_3_word_2,far,pizza,English_Speech,adult,megan,,,,,,,,,female
X8Y4g,19,9,fem_plain,fem_sws,3,window,pizza,window,pizza,grapes,window,fem_plain_fem_sws,critical,2/23/2017,14:37,right,true,2115,1,1_2_1_1,word_1_word_3_word_2,far,window,English_Speech,adult,megan,,,,,,,,,female
X8Y4g,20,4,fem_plain,fem_sws,1,strawberry,coat,flower,strawberry,flower,coat,fem_plain_fem_sws,critical,2/23/2017,14:37,top_img,true,1986,1,2_1_1_0,word_2_word_3_word_1,different,strawberry,English_Speech,adult,megan,,,,,,,,,female
X8Y4g,20,4,fem_plain,fem_sws,2,strawberry,coat,flower,strawberry,flower,coat,fem_plain_fem_sws,critical,2/23/2017,14:37,right,true,2118,1,2_1_1_0,word_2_word_3_word_1,different,coat,English_Speech,adult,megan,,,,,,,,,female
X8Y4g,20,4,fem_plain,fem_sws,3,strawberry,coat,flower,strawberry,flower,coat,fem_plain_fem_sws,critical,2/23/2017,14:37,left,true,1767,1,2_1_1_0,word_2_word_3_word_1,different,flower,English_Speech,adult,megan,,,,,,,,,female
X8Y4g,21,1,fem_plain,fem_sws,1,train,baby,spoon,baby,spoon,train,fem_plain_fem_sws,critical,2/23/2017,14:37,right,true,2422,1,2_1_1_0,word_2_word_1_word_3,different,train,English_Speech,adult,megan,,,,,,,,,female
X8Y4g,21,1,fem_plain,fem_sws,2,train,baby,spoon,baby,spoon,train,fem_plain_fem_sws,critical,2/23/2017,14:37,top_img,true,1971,1,2_1_1_0,word_2_word_1_word_3,different,baby,English_Speech,adult,megan,,,,,,,,,female
X8Y4g,21,1,fem_plain,fem_sws,3,train,baby,spoon,baby,spoon,train,fem_plain_fem_sws,critical,2/23/2017,14:37,left,true,1915,1,2_1_1_0,word_2_word_1_word_3,different,spoon,English_Speech,adult,megan,,,,,,,,,female
X8Y4g,22,16,fem_plain,fem_sws,1,paintbrush,chair,paintbrush,banana,chair,paintbrush,fem_plain_fem_sws,critical,2/23/2017,14:37,right,true,2597,1,2_1_2_1,word_2_word_3_word_1,far,paintbrush,English_Speech,adult,megan,,,,,,,,,female
X8Y4g,22,16,fem_plain,fem_sws,2,paintbrush,chair,paintbrush,banana,chair,paintbrush,fem_plain_fem_sws,critical,2/23/2017,14:37,left,true,2458,1,2_1_2_1,word_2_word_3_word_1,far,chair,English_Speech,adult,megan,,,,,,,,,female
X8Y4g,22,16,fem_plain,fem_sws,3,paintbrush,chair,paintbrush,banana,chair,paintbrush,fem_plain_fem_sws,critical,2/23/2017,14:37,right,true,2374,1,2_1_2_1,word_2_word_3_word_1,far,paintbrush,English_Speech,adult,megan,,,,,,,,,female
X8Y4g,23,18,fem_plain,fem_sws,1,raspberry,ball,camera,ball,raspberry,camera,fem_plain_fem_sws,critical,2/23/2017,14:37,left,true,2995,1,2_1_1_0,word_1_word_2_word_3,different,raspberry,English_Speech,adult,megan,,,,,,,,,female
X8Y4g,23,18,fem_plain,fem_sws,2,raspberry,ball,camera,ball,raspberry,camera,fem_plain_fem_sws,critical,2/23/2017,14:37,top_img,true,2673,1,2_1_1_0,word_1_word_2_word_3,different,ball,English_Speech,adult,megan,,,,,,,,,female
X8Y4g,23,18,fem_plain,fem_sws,3,raspberry,ball,camera,ball,raspberry,camera,fem_plain_fem_sws,critical,2/23/2017,14:37,right,true,2102,1,2_1_1_0,word_1_word_2_word_3,different,camera,English_Speech,adult,megan,,,,,,,,,female
X8Y4g,24,22,fem_plain,fem_sws,1,doctor,dog,bike,bike,dog,doctor,fem_plain_fem_sws,critical,2/23/2017,14:37,right,true,2572,1,2_1_1_0,word_1_word_2_word_3,different,doctor,English_Speech,adult,megan,,,,,,,,,female
X8Y4g,24,22,fem_plain,fem_sws,2,doctor,dog,bike,bike,dog,doctor,fem_plain_fem_sws,critical,2/23/2017,14:37,left,true,2010,1,2_1_1_0,word_1_word_2_word_3,different,dog,English_Speech,adult,megan,,,,,,,,,female
X8Y4g,24,22,fem_plain,fem_sws,3,doctor,dog,bike,bike,dog,doctor,fem_plain_fem_sws,critical,2/23/2017,14:37,top_img,true,2168,1,2_1_1_0,word_1_word_2_word_3,different,bike,English_Speech,adult,megan,,,,,,,,,female
X8Y4g,25,15,fem_plain,fem_sws,1,slide,pencil,slide,beans,pencil,slide,fem_plain_fem_sws,critical,2/23/2017,14:37,right,true,2027,1,1_2_1_1,word_3_word_2_word_1,far,slide,English_Speech,adult,megan,,,,,,,,,female
X8Y4g,25,15,fem_plain,fem_sws,2,slide,pencil,slide,beans,pencil,slide,fem_plain_fem_sws,critical,2/23/2017,14:37,left,true,1729,1,1_2_1_1,word_3_word_2_word_1,far,pencil,English_Speech,adult,megan,,,,,,,,,female
X8Y4g,25,15,fem_plain,fem_sws,3,slide,pencil,slide,beans,pencil,slide,fem_plain_fem_sws,critical,2/23/2017,14:37,right,true,2071,1,1_2_1_1,word_3_word_2_word_1,far,slide,English_Speech,adult,megan,,,,,,,,,female
