subject_id,trial_number,trial_id,plain,sws,instruction_number,sound1_item,sound2_item,sound3_item,top_image,left_image,right_image,sound_gender,trial_type,date_stamp,time_stamp,side_chosen,accuracy,rt,play_counter,order,pic_position,distance,chosen_pic,test_lang,testing_loc,tester,date_of_birth,ethnicity,native_lang,other_langs,parental_occ,dev_info,birth_order,num_siblings,gender
zu0nx,1,0,mal_plain,mal_sws,1,tractor,glasses,glasses,tractor,fireman,glasses,mal_plain_mal_sws,training,2/23/2017,13:53,top_img,true,2030,3,2_1_1_1,word_3_word_1_word_2,near,tractor,English_Speech,adult,megan,2017-02-23,White,English,,,,6,6,male
zu0nx,1,0,mal_plain,mal_sws,2,tractor,glasses,glasses,tractor,fireman,glasses,mal_plain_mal_sws,training,2/23/2017,13:53,right,true,5111,1,2_1_1_1,word_3_word_1_word_2,near,glasses,English_Speech,adult,megan,2017-02-23,White,English,,,,6,6,male
zu0nx,1,0,mal_plain,mal_sws,3,tractor,glasses,glasses,tractor,fireman,glasses,mal_plain_mal_sws,training,2/23/2017,13:53,right,true,2783,1,2_1_1_1,word_3_word_1_word_2,near,glasses,English_Speech,adult,megan,2017-02-23,White,English,,,,6,6,male
zu0nx,2,7,mal_plain,mal_sws,1,lolly,horse,horse,horse,cat,lolly,mal_plain_mal_sws,critical,2/23/2017,13:53,right,true,2902,1,1_2_2_1,word_2_word_3_word_1,near,lolly,English_Speech,adult,megan,2017-02-23,White,English,,,,6,6,male
zu0nx,2,7,mal_plain,mal_sws,2,lolly,horse,horse,horse,cat,lolly,mal_plain_mal_sws,critical,2/23/2017,13:53,top_img,true,2344,1,1_2_2_1,word_2_word_3_word_1,near,horse,English_Speech,adult,megan,2017-02-23,White,English,,,,6,6,male
zu0nx,2,7,mal_plain,mal_sws,3,lolly,horse,horse,horse,cat,lolly,mal_plain_mal_sws,critical,2/23/2017,13:53,top_img,true,2399,1,1_2_2_1,word_2_word_3_word_1,near,horse,English_Speech,adult,megan,2017-02-23,White,English,,,,6,6,male
zu0nx,3,15,mal_plain,mal_sws,1,slide,pencil,slide,pencil,slide,beans,mal_plain_mal_sws,critical,2/23/2017,13:53,left,true,2909,1,2_1_2_1,word_2_word_1_word_3,far,slide,English_Speech,adult,megan,2017-02-23,White,English,,,,6,6,male
zu0nx,3,15,mal_plain,mal_sws,2,slide,pencil,slide,pencil,slide,beans,mal_plain_mal_sws,critical,2/23/2017,13:53,top_img,true,2064,1,2_1_2_1,word_2_word_1_word_3,far,pencil,English_Speech,adult,megan,2017-02-23,White,English,,,,6,6,male
zu0nx,3,15,mal_plain,mal_sws,3,slide,pencil,slide,pencil,slide,beans,mal_plain_mal_sws,critical,2/23/2017,13:53,left,true,2643,1,2_1_2_1,word_2_word_1_word_3,far,slide,English_Speech,adult,megan,2017-02-23,White,English,,,,6,6,male
zu0nx,4,8,mal_plain,mal_sws,1,fire_engine,wellyboots,fire_engine,fire_engine,wellyboots,ear,mal_plain_mal_sws,critical,2/23/2017,13:53,top_img,true,2867,1,1_2_1_1,word_2_word_1_word_3,far,fire_engine,English_Speech,adult,megan,2017-02-23,White,English,,,,6,6,male
zu0nx,4,8,mal_plain,mal_sws,2,fire_engine,wellyboots,fire_engine,fire_engine,wellyboots,ear,mal_plain_mal_sws,critical,2/23/2017,13:53,left,true,3049,1,1_2_1_1,word_2_word_1_word_3,far,wellyboots,English_Speech,adult,megan,2017-02-23,White,English,,,,6,6,male
zu0nx,4,8,mal_plain,mal_sws,3,fire_engine,wellyboots,fire_engine,fire_engine,wellyboots,ear,mal_plain_mal_sws,critical,2/23/2017,13:53,top_img,true,3756,2,1_2_1_1,word_2_word_1_word_3,far,fire_engine,English_Speech,adult,megan,2017-02-23,White,English,,,,6,6,male
zu0nx,5,12,mal_plain,mal_sws,1,foot,gloves,gloves,gloves,foot,yoghurt,mal_plain_mal_sws,critical,2/23/2017,13:53,left,true,1918,2,2_1_1_1,word_3_word_1_word_2,near,foot,English_Speech,adult,megan,2017-02-23,White,English,,,,6,6,male
zu0nx,5,12,mal_plain,mal_sws,2,foot,gloves,gloves,gloves,foot,yoghurt,mal_plain_mal_sws,critical,2/23/2017,13:53,top_img,true,2103,2,2_1_1_1,word_3_word_1_word_2,near,gloves,English_Speech,adult,megan,2017-02-23,White,English,,,,6,6,male
zu0nx,5,12,mal_plain,mal_sws,3,foot,gloves,gloves,gloves,foot,yoghurt,mal_plain_mal_sws,critical,2/23/2017,13:53,top_img,true,1763,2,2_1_1_1,word_3_word_1_word_2,near,gloves,English_Speech,adult,megan,2017-02-23,White,English,,,,6,6,male
zu0nx,6,6,mal_plain,mal_sws,1,carrot,peas,bird,carrot,bird,peas,mal_plain_mal_sws,critical,2/23/2017,13:53,top_img,true,1876,2,2_1_2_0,word_3_word_1_word_2,different,carrot,English_Speech,adult,megan,2017-02-23,White,English,,,,6,6,male
zu0nx,6,6,mal_plain,mal_sws,2,carrot,peas,bird,carrot,bird,peas,mal_plain_mal_sws,critical,2/23/2017,13:53,right,true,1478,2,2_1_2_0,word_3_word_1_word_2,different,peas,English_Speech,adult,megan,2017-02-23,White,English,,,,6,6,male
zu0nx,6,6,mal_plain,mal_sws,3,carrot,peas,bird,carrot,bird,peas,mal_plain_mal_sws,critical,2/23/2017,13:53,left,true,2340,2,2_1_2_0,word_3_word_1_word_2,different,bird,English_Speech,adult,megan,2017-02-23,White,English,,,,6,6,male
zu0nx,7,10,mal_plain,mal_sws,1,pig,hat,pig,hat,tshirt,pig,mal_plain_mal_sws,critical,2/23/2017,13:53,right,true,1844,2,2_1_2_1,word_3_word_2_word_1,far,pig,English_Speech,adult,megan,2017-02-23,White,English,,,,6,6,male
zu0nx,7,10,mal_plain,mal_sws,2,pig,hat,pig,hat,tshirt,pig,mal_plain_mal_sws,critical,2/23/2017,13:53,top_img,true,1645,2,2_1_2_1,word_3_word_2_word_1,far,hat,English_Speech,adult,megan,2017-02-23,White,English,,,,6,6,male
zu0nx,7,10,mal_plain,mal_sws,3,pig,hat,pig,hat,tshirt,pig,mal_plain_mal_sws,critical,2/23/2017,13:53,right,true,1909,1,2_1_2_1,word_3_word_2_word_1,far,pig,English_Speech,adult,megan,2017-02-23,White,English,,,,6,6,male
zu0nx,8,3,mal_plain,mal_sws,1,telephone,nose,trousers,telephone,trousers,nose,mal_plain_mal_sws,critical,2/23/2017,13:53,top_img,true,2357,2,2_1_1_0,word_3_word_1_word_2,different,telephone,English_Speech,adult,megan,2017-02-23,White,English,,,,6,6,male
zu0nx,8,3,mal_plain,mal_sws,2,telephone,nose,trousers,telephone,trousers,nose,mal_plain_mal_sws,critical,2/23/2017,13:53,right,true,1820,2,2_1_1_0,word_3_word_1_word_2,different,nose,English_Speech,adult,megan,2017-02-23,White,English,,,,6,6,male
zu0nx,8,3,mal_plain,mal_sws,3,telephone,nose,trousers,telephone,trousers,nose,mal_plain_mal_sws,critical,2/23/2017,13:53,left,true,1990,1,2_1_1_0,word_3_word_1_word_2,different,trousers,English_Speech,adult,megan,2017-02-23,White,English,,,,6,6,male
zu0nx,9,2,mal_plain,mal_sws,1,bed,chicken,fork,chicken,fork,bed,mal_plain_mal_sws,critical,2/23/2017,13:53,right,true,3436,2,2_1_2_0,word_2_word_3_word_1,different,bed,English_Speech,adult,megan,2017-02-23,White,English,,,,6,6,male
zu0nx,9,2,mal_plain,mal_sws,2,bed,chicken,fork,chicken,fork,bed,mal_plain_mal_sws,critical,2/23/2017,13:53,top_img,true,2365,2,2_1_2_0,word_2_word_3_word_1,different,chicken,English_Speech,adult,megan,2017-02-23,White,English,,,,6,6,male
zu0nx,9,2,mal_plain,mal_sws,3,bed,chicken,fork,chicken,fork,bed,mal_plain_mal_sws,critical,2/23/2017,13:53,left,true,2029,1,2_1_2_0,word_2_word_3_word_1,different,fork,English_Speech,adult,megan,2017-02-23,White,English,,,,6,6,male
zu0nx,10,5,mal_plain,mal_sws,1,car,mouth,orange,mouth,car,orange,mal_plain_mal_sws,critical,2/23/2017,13:53,left,true,1683,2,2_1_1_0,word_3_word_2_word_1,different,car,English_Speech,adult,megan,2017-02-23,White,English,,,,6,6,male
zu0nx,10,5,mal_plain,mal_sws,2,car,mouth,orange,mouth,car,orange,mal_plain_mal_sws,critical,2/23/2017,13:53,top_img,true,1486,2,2_1_1_0,word_3_word_2_word_1,different,mouth,English_Speech,adult,megan,2017-02-23,White,English,,,,6,6,male
zu0nx,10,5,mal_plain,mal_sws,3,car,mouth,orange,mouth,car,orange,mal_plain_mal_sws,critical,2/23/2017,13:53,right,true,2340,1,2_1_1_0,word_3_word_2_word_1,different,orange,English_Speech,adult,megan,2017-02-23,White,English,,,,6,6,male
zu0nx,11,11,mal_plain,mal_sws,1,cow,lorry,cow,lorry,cow,book,mal_plain_mal_sws,critical,2/23/2017,13:53,left,true,2852,2,2_1_2_1,word_2_word_3_word_1,far,cow,English_Speech,adult,megan,2017-02-23,White,English,,,,6,6,male
zu0nx,11,11,mal_plain,mal_sws,2,cow,lorry,cow,lorry,cow,book,mal_plain_mal_sws,critical,2/23/2017,13:53,top_img,true,1559,1,2_1_2_1,word_2_word_3_word_1,far,lorry,English_Speech,adult,megan,2017-02-23,White,English,,,,6,6,male
zu0nx,11,11,mal_plain,mal_sws,3,cow,lorry,cow,lorry,cow,book,mal_plain_mal_sws,critical,2/23/2017,13:53,left,true,2807,1,2_1_2_1,word_2_word_3_word_1,far,cow,English_Speech,adult,megan,2017-02-23,White,English,,,,6,6,male
zu0nx,12,22,mal_plain,mal_sws,1,dog,bike,dog,dog,doctor,bike,mal_plain_mal_sws,critical,2/23/2017,13:53,top_img,true,1774,2,1_2_1_1,word_2_word_3_word_1,far,dog,English_Speech,adult,megan,2017-02-23,White,English,,,,6,6,male
zu0nx,12,22,mal_plain,mal_sws,2,dog,bike,dog,dog,doctor,bike,mal_plain_mal_sws,critical,2/23/2017,13:53,right,true,2520,2,1_2_1_1,word_2_word_3_word_1,far,bike,English_Speech,adult,megan,2017-02-23,White,English,,,,6,6,male
zu0nx,12,22,mal_plain,mal_sws,3,dog,bike,dog,dog,doctor,bike,mal_plain_mal_sws,critical,2/23/2017,13:53,top_img,true,1457,2,1_2_1_1,word_2_word_3_word_1,far,dog,English_Speech,adult,megan,2017-02-23,White,English,,,,6,6,male
zu0nx,13,17,mal_plain,mal_sws,1,ambulance,hand,cake,hand,cake,ambulance,mal_plain_mal_sws,critical,2/23/2017,13:53,right,true,3792,2,2_1_1_0,word_3_word_1_word_2,different,ambulance,English_Speech,adult,megan,2017-02-23,White,English,,,,6,6,male
zu0nx,13,17,mal_plain,mal_sws,2,ambulance,hand,cake,hand,cake,ambulance,mal_plain_mal_sws,critical,2/23/2017,13:53,top_img,true,2011,1,2_1_1_0,word_3_word_1_word_2,different,hand,English_Speech,adult,megan,2017-02-23,White,English,,,,6,6,male
zu0nx,13,17,mal_plain,mal_sws,3,ambulance,hand,cake,hand,cake,ambulance,mal_plain_mal_sws,critical,2/23/2017,13:53,left,true,1898,4,2_1_1_0,word_3_word_1_word_2,different,cake,English_Speech,adult,megan,2017-02-23,White,English,,,,6,6,male
zu0nx,14,9,mal_plain,mal_sws,1,pizza,grapes,window,grapes,window,pizza,mal_plain_mal_sws,critical,2/23/2017,13:53,right,true,2109,2,1_2_2_0,word_3_word_2_word_1,different,pizza,English_Speech,adult,megan,2017-02-23,White,English,,,,6,6,male
zu0nx,14,9,mal_plain,mal_sws,2,pizza,grapes,window,grapes,window,pizza,mal_plain_mal_sws,critical,2/23/2017,13:53,top_img,true,2036,2,1_2_2_0,word_3_word_2_word_1,different,grapes,English_Speech,adult,megan,2017-02-23,White,English,,,,6,6,male
zu0nx,14,9,mal_plain,mal_sws,3,pizza,grapes,window,grapes,window,pizza,mal_plain_mal_sws,critical,2/23/2017,13:53,left,true,1377,2,1_2_2_0,word_3_word_2_word_1,different,window,English_Speech,adult,megan,2017-02-23,White,English,,,,6,6,male
zu0nx,15,16,mal_plain,mal_sws,1,chair,banana,banana,paintbrush,banana,chair,mal_plain_mal_sws,critical,2/23/2017,13:53,right,true,3934,2,1_2_2_1,word_1_word_2_word_3,near,chair,English_Speech,adult,megan,2017-02-23,White,English,,,,6,6,male
zu0nx,15,16,mal_plain,mal_sws,2,chair,banana,banana,paintbrush,banana,chair,mal_plain_mal_sws,critical,2/23/2017,13:53,left,true,2892,2,1_2_2_1,word_1_word_2_word_3,near,banana,English_Speech,adult,megan,2017-02-23,White,English,,,,6,6,male
zu0nx,15,16,mal_plain,mal_sws,3,chair,banana,banana,paintbrush,banana,chair,mal_plain_mal_sws,critical,2/23/2017,13:53,left,true,2324,2,1_2_2_1,word_1_word_2_word_3,near,banana,English_Speech,adult,megan,2017-02-23,White,English,,,,6,6,male
zu0nx,16,24,mal_plain,mal_sws,1,fish,sink,socks,fish,sink,socks,mal_plain_mal_sws,critical,2/23/2017,13:53,top_img,true,2369,2,2_1_1_0,word_2_word_1_word_3,different,fish,English_Speech,adult,megan,2017-02-23,White,English,,,,6,6,male
zu0nx,16,24,mal_plain,mal_sws,2,fish,sink,socks,fish,sink,socks,mal_plain_mal_sws,critical,2/23/2017,13:53,left,true,2247,2,2_1_1_0,word_2_word_1_word_3,different,sink,English_Speech,adult,megan,2017-02-23,White,English,,,,6,6,male
zu0nx,16,24,mal_plain,mal_sws,3,fish,sink,socks,fish,sink,socks,mal_plain_mal_sws,critical,2/23/2017,13:53,right,true,1701,2,2_1_1_0,word_2_word_1_word_3,different,socks,English_Speech,adult,megan,2017-02-23,White,English,,,,6,6,male
zu0nx,17,21,mal_plain,mal_sws,1,eye,frog,sheep,sheep,frog,eye,mal_plain_mal_sws,critical,2/23/2017,13:53,right,true,2123,2,2_1_1_0,word_2_word_1_word_3,different,eye,English_Speech,adult,megan,2017-02-23,White,English,,,,6,6,male
zu0nx,17,21,mal_plain,mal_sws,2,eye,frog,sheep,sheep,frog,eye,mal_plain_mal_sws,critical,2/23/2017,13:53,left,true,2189,2,2_1_1_0,word_2_word_1_word_3,different,frog,English_Speech,adult,megan,2017-02-23,White,English,,,,6,6,male
zu0nx,17,21,mal_plain,mal_sws,3,eye,frog,sheep,sheep,frog,eye,mal_plain_mal_sws,critical,2/23/2017,13:53,top_img,true,1838,1,2_1_1_0,word_2_word_1_word_3,different,sheep,English_Speech,adult,megan,2017-02-23,White,English,,,,6,6,male
zu0nx,18,23,mal_plain,mal_sws,1,teddy_bear,bath,bath,teddy_bear,table,bath,mal_plain_mal_sws,critical,2/23/2017,13:53,top_img,true,1947,2,1_2_2_1,word_2_word_3_word_1,near,teddy_bear,English_Speech,adult,megan,2017-02-23,White,English,,,,6,6,male
zu0nx,18,23,mal_plain,mal_sws,2,teddy_bear,bath,bath,teddy_bear,table,bath,mal_plain_mal_sws,critical,2/23/2017,13:53,right,true,1771,2,1_2_2_1,word_2_word_3_word_1,near,bath,English_Speech,adult,megan,2017-02-23,White,English,,,,6,6,male
zu0nx,18,23,mal_plain,mal_sws,3,teddy_bear,bath,bath,teddy_bear,table,bath,mal_plain_mal_sws,critical,2/23/2017,13:53,right,true,1317,4,1_2_2_1,word_2_word_3_word_1,near,bath,English_Speech,adult,megan,2017-02-23,White,English,,,,6,6,male
zu0nx,19,4,mal_plain,mal_sws,1,strawberry,coat,flower,flower,coat,strawberry,mal_plain_mal_sws,critical,2/23/2017,13:53,right,true,1778,2,2_1_1_0,word_3_word_1_word_2,different,strawberry,English_Speech,adult,megan,2017-02-23,White,English,,,,6,6,male
zu0nx,19,4,mal_plain,mal_sws,2,strawberry,coat,flower,flower,coat,strawberry,mal_plain_mal_sws,critical,2/23/2017,13:53,left,true,1916,3,2_1_1_0,word_3_word_1_word_2,different,coat,English_Speech,adult,megan,2017-02-23,White,English,,,,6,6,male
zu0nx,19,4,mal_plain,mal_sws,3,strawberry,coat,flower,flower,coat,strawberry,mal_plain_mal_sws,critical,2/23/2017,13:53,top_img,true,1774,2,2_1_1_0,word_3_word_1_word_2,different,flower,English_Speech,adult,megan,2017-02-23,White,English,,,,6,6,male
zu0nx,20,18,mal_plain,mal_sws,1,camera,raspberry,ball,ball,raspberry,camera,mal_plain_mal_sws,critical,2/23/2017,13:53,right,true,1395,2,1_2_2_0,word_1_word_2_word_3,different,camera,English_Speech,adult,megan,2017-02-23,White,English,,,,6,6,male
zu0nx,20,18,mal_plain,mal_sws,2,camera,raspberry,ball,ball,raspberry,camera,mal_plain_mal_sws,critical,2/23/2017,13:53,left,true,2489,2,1_2_2_0,word_1_word_2_word_3,different,raspberry,English_Speech,adult,megan,2017-02-23,White,English,,,,6,6,male
zu0nx,20,18,mal_plain,mal_sws,3,camera,raspberry,ball,ball,raspberry,camera,mal_plain_mal_sws,critical,2/23/2017,13:53,left,false,1637,2,1_2_2_0,word_1_word_2_word_3,different,raspberry,English_Speech,adult,megan,2017-02-23,White,English,,,,6,6,male
zu0nx,21,20,mal_plain,mal_sws,1,apple,rabbit,jumper,rabbit,apple,jumper,mal_plain_mal_sws,critical,2/23/2017,13:53,left,true,2398,2,2_1_2_0,word_2_word_3_word_1,different,apple,English_Speech,adult,megan,2017-02-23,White,English,,,,6,6,male
zu0nx,21,20,mal_plain,mal_sws,2,apple,rabbit,jumper,rabbit,apple,jumper,mal_plain_mal_sws,critical,2/23/2017,13:53,top_img,true,1609,4,2_1_2_0,word_2_word_3_word_1,different,rabbit,English_Speech,adult,megan,2017-02-23,White,English,,,,6,6,male
zu0nx,21,20,mal_plain,mal_sws,3,apple,rabbit,jumper,rabbit,apple,jumper,mal_plain_mal_sws,critical,2/23/2017,13:53,right,true,1672,2,2_1_2_0,word_2_word_3_word_1,different,jumper,English_Speech,adult,megan,2017-02-23,White,English,,,,6,6,male
zu0nx,22,19,mal_plain,mal_sws,1,tree,santa,tree,santa,building_blocks,tree,mal_plain_mal_sws,critical,2/23/2017,13:53,right,true,1628,2,1_2_1_1,word_1_word_2_word_3,far,tree,English_Speech,adult,megan,2017-02-23,White,English,,,,6,6,male
zu0nx,22,19,mal_plain,mal_sws,2,tree,santa,tree,santa,building_blocks,tree,mal_plain_mal_sws,critical,2/23/2017,13:53,top_img,true,2450,2,1_2_1_1,word_1_word_2_word_3,far,santa,English_Speech,adult,megan,2017-02-23,White,English,,,,6,6,male
zu0nx,22,19,mal_plain,mal_sws,3,tree,santa,tree,santa,building_blocks,tree,mal_plain_mal_sws,critical,2/23/2017,13:53,right,true,1506,2,1_2_1_1,word_1_word_2_word_3,far,tree,English_Speech,adult,megan,2017-02-23,White,English,,,,6,6,male
zu0nx,23,13,mal_plain,mal_sws,1,airplane,toothbrush,bread,toothbrush,bread,airplane,mal_plain_mal_sws,critical,2/23/2017,13:53,right,true,1867,2,1_2_2_0,word_1_word_3_word_2,different,airplane,English_Speech,adult,megan,2017-02-23,White,English,,,,6,6,male
zu0nx,23,13,mal_plain,mal_sws,2,airplane,toothbrush,bread,toothbrush,bread,airplane,mal_plain_mal_sws,critical,2/23/2017,13:53,top_img,true,1701,2,1_2_2_0,word_1_word_3_word_2,different,toothbrush,English_Speech,adult,megan,2017-02-23,White,English,,,,6,6,male
zu0nx,23,13,mal_plain,mal_sws,3,airplane,toothbrush,bread,toothbrush,bread,airplane,mal_plain_mal_sws,critical,2/23/2017,13:53,left,true,3015,2,1_2_2_0,word_1_word_3_word_2,different,bread,English_Speech,adult,megan,2017-02-23,White,English,,,,6,6,male
zu0nx,24,1,mal_plain,mal_sws,1,baby,spoon,spoon,spoon,baby,train,mal_plain_mal_sws,critical,2/23/2017,13:53,left,true,1436,2,2_1_1_1,word_1_word_2_word_3,near,baby,English_Speech,adult,megan,2017-02-23,White,English,,,,6,6,male
zu0nx,24,1,mal_plain,mal_sws,2,baby,spoon,spoon,spoon,baby,train,mal_plain_mal_sws,critical,2/23/2017,13:53,top_img,true,1522,2,2_1_1_1,word_1_word_2_word_3,near,spoon,English_Speech,adult,megan,2017-02-23,White,English,,,,6,6,male
zu0nx,24,1,mal_plain,mal_sws,3,baby,spoon,spoon,spoon,baby,train,mal_plain_mal_sws,critical,2/23/2017,13:53,top_img,true,2031,2,2_1_1_1,word_1_word_2_word_3,near,spoon,English_Speech,adult,megan,2017-02-23,White,English,,,,6,6,male
zu0nx,25,14,mal_plain,mal_sws,1,door,cheese,door,door,shoes,cheese,mal_plain_mal_sws,critical,2/23/2017,13:53,top_img,true,1923,2,1_2_1_1,word_3_word_2_word_1,far,door,English_Speech,adult,megan,2017-02-23,White,English,,,,6,6,male
zu0nx,25,14,mal_plain,mal_sws,2,door,cheese,door,door,shoes,cheese,mal_plain_mal_sws,critical,2/23/2017,13:53,right,true,1813,2,1_2_1_1,word_3_word_2_word_1,far,cheese,English_Speech,adult,megan,2017-02-23,White,English,,,,6,6,male
zu0nx,25,14,mal_plain,mal_sws,3,door,cheese,door,door,shoes,cheese,mal_plain_mal_sws,critical,2/23/2017,13:53,top_img,true,1692,2,1_2_1_1,word_3_word_2_word_1,far,door,English_Speech,adult,megan,2017-02-23,White,English,,,,6,6,male
