subject_id,trial_number,trial_id,plain,sws,instruction_number,sound1_item,sound2_item,sound3_item,top_image,left_image,right_image,sound_gender,trial_type,date_stamp,time_stamp,side_chosen,accuracy,rt,play_counter,order,pic_position,distance,chosen_pic,test_lang,testing_loc,tester,date_of_birth,ethnicity,native_lang,other_langs,parental_occ,dev_info,birth_order,num_siblings,gender
3MXnJ,1,0,mal_plain,mal_sws,1,fireman,tractor,fireman,fireman,tractor,glasses,mal_plain_mal_sws,training,2/2/2017,10:50,top_img,true,2996,1,1_2_1_1,word_1_word_3_word_2,far,fireman,English_Speech,preschool,megan,,,,,,,,,female
3MXnJ,1,0,mal_plain,mal_sws,2,fireman,tractor,fireman,fireman,tractor,glasses,mal_plain_mal_sws,training,2/2/2017,10:50,left,true,2407,2,1_2_1_1,word_1_word_3_word_2,far,tractor,English_Speech,preschool,megan,,,,,,,,,female
3MXnJ,1,0,mal_plain,mal_sws,3,fireman,tractor,fireman,fireman,tractor,glasses,mal_plain_mal_sws,training,2/2/2017,10:50,top_img,true,1506,6,1_2_1_1,word_1_word_3_word_2,far,fireman,English_Speech,preschool,megan,,,,,,,,,female
3MXnJ,2,18,mal_plain,mal_sws,1,raspberry,camera,camera,raspberry,ball,camera,mal_plain_mal_sws,critical,2/2/2017,10:50,top_img,true,5420,2,2_1_1_1,word_2_word_1_word_3,near,raspberry,English_Speech,preschool,megan,,,,,,,,,female
3MXnJ,2,18,mal_plain,mal_sws,2,raspberry,camera,camera,raspberry,ball,camera,mal_plain_mal_sws,critical,2/2/2017,10:50,right,true,3489,2,2_1_1_1,word_2_word_1_word_3,near,camera,English_Speech,preschool,megan,,,,,,,,,female
3MXnJ,2,18,mal_plain,mal_sws,3,raspberry,camera,camera,raspberry,ball,camera,mal_plain_mal_sws,critical,2/2/2017,10:50,left,false,5990,2,2_1_1_1,word_2_word_1_word_3,near,ball,English_Speech,preschool,megan,,,,,,,,,female
3MXnJ,3,9,mal_plain,mal_sws,1,window,pizza,window,window,grapes,pizza,mal_plain_mal_sws,critical,2/2/2017,10:50,top_img,true,2754,1,2_1_2_1,word_2_word_3_word_1,far,window,English_Speech,preschool,megan,,,,,,,,,female
3MXnJ,3,9,mal_plain,mal_sws,2,window,pizza,window,window,grapes,pizza,mal_plain_mal_sws,critical,2/2/2017,10:50,right,true,2292,2,2_1_2_1,word_2_word_3_word_1,far,pizza,English_Speech,preschool,megan,,,,,,,,,female
3MXnJ,3,9,mal_plain,mal_sws,3,window,pizza,window,window,grapes,pizza,mal_plain_mal_sws,critical,2/2/2017,10:50,top_img,true,696,6,2_1_2_1,word_2_word_3_word_1,far,window,English_Speech,preschool,megan,,,,,,,,,female
3MXnJ,4,13,mal_plain,mal_sws,1,airplane,toothbrush,bread,bread,toothbrush,airplane,mal_plain_mal_sws,critical,2/2/2017,10:50,right,true,2848,2,2_1_1_0,word_3_word_1_word_2,different,airplane,English_Speech,preschool,megan,,,,,,,,,female
3MXnJ,4,13,mal_plain,mal_sws,2,airplane,toothbrush,bread,bread,toothbrush,airplane,mal_plain_mal_sws,critical,2/2/2017,10:50,left,true,2380,2,2_1_1_0,word_3_word_1_word_2,different,toothbrush,English_Speech,preschool,megan,,,,,,,,,female
3MXnJ,4,13,mal_plain,mal_sws,3,airplane,toothbrush,bread,bread,toothbrush,airplane,mal_plain_mal_sws,critical,2/2/2017,10:50,top_img,true,4507,2,2_1_1_0,word_3_word_1_word_2,different,bread,English_Speech,preschool,megan,,,,,,,,,female
3MXnJ,5,23,mal_plain,mal_sws,1,bath,table,bath,teddy_bear,bath,table,mal_plain_mal_sws,critical,2/2/2017,10:50,left,true,3044,2,1_2_1_1,word_2_word_1_word_3,far,bath,English_Speech,preschool,megan,,,,,,,,,female
3MXnJ,5,23,mal_plain,mal_sws,2,bath,table,bath,teddy_bear,bath,table,mal_plain_mal_sws,critical,2/2/2017,10:50,right,true,2595,2,1_2_1_1,word_2_word_1_word_3,far,table,English_Speech,preschool,megan,,,,,,,,,female
3MXnJ,5,23,mal_plain,mal_sws,3,bath,table,bath,teddy_bear,bath,table,mal_plain_mal_sws,critical,2/2/2017,10:50,top_img,false,5867,2,1_2_1_1,word_2_word_1_word_3,far,teddy_bear,English_Speech,preschool,megan,,,,,,,,,female
3MXnJ,6,24,mal_plain,mal_sws,1,sink,fish,socks,sink,fish,socks,mal_plain_mal_sws,critical,2/2/2017,10:50,top_img,true,3060,2,2_1_1_0,word_1_word_2_word_3,different,sink,English_Speech,preschool,megan,,,,,,,,,female
3MXnJ,6,24,mal_plain,mal_sws,2,sink,fish,socks,sink,fish,socks,mal_plain_mal_sws,critical,2/2/2017,10:50,left,true,2428,2,2_1_1_0,word_1_word_2_word_3,different,fish,English_Speech,preschool,megan,,,,,,,,,female
3MXnJ,6,24,mal_plain,mal_sws,3,sink,fish,socks,sink,fish,socks,mal_plain_mal_sws,critical,2/2/2017,10:50,right,true,6327,1,2_1_1_0,word_1_word_2_word_3,different,socks,English_Speech,preschool,megan,,,,,,,,,female
3MXnJ,7,6,mal_plain,mal_sws,1,bird,peas,bird,bird,carrot,peas,mal_plain_mal_sws,critical,2/2/2017,10:50,top_img,true,2182,1,2_1_2_1,word_1_word_3_word_2,far,bird,English_Speech,preschool,megan,,,,,,,,,female
3MXnJ,7,6,mal_plain,mal_sws,2,bird,peas,bird,bird,carrot,peas,mal_plain_mal_sws,critical,2/2/2017,10:50,right,true,2115,1,2_1_2_1,word_1_word_3_word_2,far,peas,English_Speech,preschool,megan,,,,,,,,,female
3MXnJ,7,6,mal_plain,mal_sws,3,bird,peas,bird,bird,carrot,peas,mal_plain_mal_sws,critical,2/2/2017,10:50,left,false,6260,3,2_1_2_1,word_1_word_3_word_2,far,carrot,English_Speech,preschool,megan,,,,,,,,,female
3MXnJ,8,21,mal_plain,mal_sws,1,frog,eye,sheep,frog,sheep,eye,mal_plain_mal_sws,critical,2/2/2017,10:50,top_img,true,3342,4,2_1_1_0,word_1_word_2_word_3,different,frog,English_Speech,preschool,megan,,,,,,,,,female
3MXnJ,8,21,mal_plain,mal_sws,2,frog,eye,sheep,frog,sheep,eye,mal_plain_mal_sws,critical,2/2/2017,10:50,right,true,3015,2,2_1_1_0,word_1_word_2_word_3,different,eye,English_Speech,preschool,megan,,,,,,,,,female
3MXnJ,8,21,mal_plain,mal_sws,3,frog,eye,sheep,frog,sheep,eye,mal_plain_mal_sws,critical,2/2/2017,10:50,left,true,4351,1,2_1_1_0,word_1_word_2_word_3,different,sheep,English_Speech,preschool,megan,,,,,,,,,female
3MXnJ,9,19,mal_plain,mal_sws,1,building_blocks,santa,building_blocks,tree,santa,building_blocks,mal_plain_mal_sws,critical,2/2/2017,10:50,right,true,3017,2,2_1_2_1,word_3_word_1_word_2,far,building_blocks,English_Speech,preschool,megan,,,,,,,,,female
3MXnJ,9,19,mal_plain,mal_sws,2,building_blocks,santa,building_blocks,tree,santa,building_blocks,mal_plain_mal_sws,critical,2/2/2017,10:50,left,true,2704,1,2_1_2_1,word_3_word_1_word_2,far,santa,English_Speech,preschool,megan,,,,,,,,,female
3MXnJ,9,19,mal_plain,mal_sws,3,building_blocks,santa,building_blocks,tree,santa,building_blocks,mal_plain_mal_sws,critical,2/2/2017,10:50,top_img,false,6737,2,2_1_2_1,word_3_word_1_word_2,far,tree,English_Speech,preschool,megan,,,,,,,,,female
3MXnJ,10,14,mal_plain,mal_sws,1,door,cheese,cheese,cheese,door,shoes,mal_plain_mal_sws,critical,2/2/2017,10:50,left,true,2801,1,1_2_2_1,word_1_word_3_word_2,near,door,English_Speech,preschool,megan,,,,,,,,,female
3MXnJ,10,14,mal_plain,mal_sws,2,door,cheese,cheese,cheese,door,shoes,mal_plain_mal_sws,critical,2/2/2017,10:50,top_img,true,3269,2,1_2_2_1,word_1_word_3_word_2,near,cheese,English_Speech,preschool,megan,,,,,,,,,female
3MXnJ,10,14,mal_plain,mal_sws,3,door,cheese,cheese,cheese,door,shoes,mal_plain_mal_sws,critical,2/2/2017,10:50,right,false,4736,2,1_2_2_1,word_1_word_3_word_2,near,shoes,English_Speech,preschool,megan,,,,,,,,,female
3MXnJ,11,10,mal_plain,mal_sws,1,pig,tshirt,hat,tshirt,hat,pig,mal_plain_mal_sws,critical,2/2/2017,10:50,right,true,3071,2,2_1_2_0,word_2_word_3_word_1,different,pig,English_Speech,preschool,megan,,,,,,,,,female
3MXnJ,11,10,mal_plain,mal_sws,2,pig,tshirt,hat,tshirt,hat,pig,mal_plain_mal_sws,critical,2/2/2017,10:50,top_img,true,3772,2,2_1_2_0,word_2_word_3_word_1,different,tshirt,English_Speech,preschool,megan,,,,,,,,,female
3MXnJ,11,10,mal_plain,mal_sws,3,pig,tshirt,hat,tshirt,hat,pig,mal_plain_mal_sws,critical,2/2/2017,10:50,left,true,4486,1,2_1_2_0,word_2_word_3_word_1,different,hat,English_Speech,preschool,megan,,,,,,,,,female
3MXnJ,12,1,mal_plain,mal_sws,1,baby,train,spoon,baby,train,spoon,mal_plain_mal_sws,critical,2/2/2017,10:50,top_img,true,2494,2,2_1_1_0,word_2_word_3_word_1,different,baby,English_Speech,preschool,megan,,,,,,,,,female
3MXnJ,12,1,mal_plain,mal_sws,2,baby,train,spoon,baby,train,spoon,mal_plain_mal_sws,critical,2/2/2017,10:50,left,true,2711,2,2_1_1_0,word_2_word_3_word_1,different,train,English_Speech,preschool,megan,,,,,,,,,female
3MXnJ,12,1,mal_plain,mal_sws,3,baby,train,spoon,baby,train,spoon,mal_plain_mal_sws,critical,2/2/2017,10:50,right,true,3170,2,2_1_1_0,word_2_word_3_word_1,different,spoon,English_Speech,preschool,megan,,,,,,,,,female
3MXnJ,13,15,mal_plain,mal_sws,1,slide,beans,pencil,slide,pencil,beans,mal_plain_mal_sws,critical,2/2/2017,10:50,top_img,true,3172,2,2_1_1_0,word_1_word_2_word_3,different,slide,English_Speech,preschool,megan,,,,,,,,,female
3MXnJ,13,15,mal_plain,mal_sws,2,slide,beans,pencil,slide,pencil,beans,mal_plain_mal_sws,critical,2/2/2017,10:50,right,true,2792,4,2_1_1_0,word_1_word_2_word_3,different,beans,English_Speech,preschool,megan,,,,,,,,,female
3MXnJ,13,15,mal_plain,mal_sws,3,slide,beans,pencil,slide,pencil,beans,mal_plain_mal_sws,critical,2/2/2017,10:50,left,true,2737,2,2_1_1_0,word_1_word_2_word_3,different,pencil,English_Speech,preschool,megan,,,,,,,,,female
3MXnJ,14,5,mal_plain,mal_sws,1,mouth,car,mouth,orange,mouth,car,mal_plain_mal_sws,critical,2/2/2017,10:50,left,true,2832,2,1_2_1_1,word_1_word_3_word_2,far,mouth,English_Speech,preschool,megan,,,,,,,,,female
3MXnJ,14,5,mal_plain,mal_sws,2,mouth,car,mouth,orange,mouth,car,mal_plain_mal_sws,critical,2/2/2017,10:50,right,true,2764,1,1_2_1_1,word_1_word_3_word_2,far,car,English_Speech,preschool,megan,,,,,,,,,female
3MXnJ,14,5,mal_plain,mal_sws,3,mouth,car,mouth,orange,mouth,car,mal_plain_mal_sws,critical,2/2/2017,10:50,top_img,false,2769,2,1_2_1_1,word_1_word_3_word_2,far,orange,English_Speech,preschool,megan,,,,,,,,,female
3MXnJ,15,12,mal_plain,mal_sws,1,yoghurt,gloves,gloves,foot,yoghurt,gloves,mal_plain_mal_sws,critical,2/2/2017,10:50,left,true,3223,2,2_1_1_1,word_1_word_2_word_3,near,yoghurt,English_Speech,preschool,megan,,,,,,,,,female
3MXnJ,15,12,mal_plain,mal_sws,2,yoghurt,gloves,gloves,foot,yoghurt,gloves,mal_plain_mal_sws,critical,2/2/2017,10:50,right,true,3322,2,2_1_1_1,word_1_word_2_word_3,near,gloves,English_Speech,preschool,megan,,,,,,,,,female
3MXnJ,15,12,mal_plain,mal_sws,3,yoghurt,gloves,gloves,foot,yoghurt,gloves,mal_plain_mal_sws,critical,2/2/2017,10:50,top_img,false,4737,2,2_1_1_1,word_1_word_2_word_3,near,foot,English_Speech,preschool,megan,,,,,,,,,female
3MXnJ,16,3,mal_plain,mal_sws,1,telephone,nose,trousers,nose,telephone,trousers,mal_plain_mal_sws,critical,2/2/2017,10:50,left,true,3695,2,2_1_2_0,word_2_word_3_word_1,different,telephone,English_Speech,preschool,megan,,,,,,,,,female
3MXnJ,16,3,mal_plain,mal_sws,2,telephone,nose,trousers,nose,telephone,trousers,mal_plain_mal_sws,critical,2/2/2017,10:50,top_img,true,3004,2,2_1_2_0,word_2_word_3_word_1,different,nose,English_Speech,preschool,megan,,,,,,,,,female
3MXnJ,16,3,mal_plain,mal_sws,3,telephone,nose,trousers,nose,telephone,trousers,mal_plain_mal_sws,critical,2/2/2017,10:50,right,true,2265,2,2_1_2_0,word_2_word_3_word_1,different,trousers,English_Speech,preschool,megan,,,,,,,,,female
3MXnJ,17,2,mal_plain,mal_sws,1,bed,fork,chicken,chicken,fork,bed,mal_plain_mal_sws,critical,2/2/2017,10:50,right,true,3477,2,1_2_2_0,word_2_word_3_word_1,different,bed,English_Speech,preschool,megan,,,,,,,,,female
3MXnJ,17,2,mal_plain,mal_sws,2,bed,fork,chicken,chicken,fork,bed,mal_plain_mal_sws,critical,2/2/2017,10:50,left,true,2973,2,1_2_2_0,word_2_word_3_word_1,different,fork,English_Speech,preschool,megan,,,,,,,,,female
3MXnJ,17,2,mal_plain,mal_sws,3,bed,fork,chicken,chicken,fork,bed,mal_plain_mal_sws,critical,2/2/2017,10:50,top_img,true,2163,1,1_2_2_0,word_2_word_3_word_1,different,chicken,English_Speech,preschool,megan,,,,,,,,,female
3MXnJ,18,7,mal_plain,mal_sws,1,lolly,cat,horse,horse,cat,lolly,mal_plain_mal_sws,critical,2/2/2017,10:50,right,true,3094,2,2_1_1_0,word_2_word_3_word_1,different,lolly,English_Speech,preschool,megan,,,,,,,,,female
3MXnJ,18,7,mal_plain,mal_sws,2,lolly,cat,horse,horse,cat,lolly,mal_plain_mal_sws,critical,2/2/2017,10:50,left,true,3006,1,2_1_1_0,word_2_word_3_word_1,different,cat,English_Speech,preschool,megan,,,,,,,,,female
3MXnJ,18,7,mal_plain,mal_sws,3,lolly,cat,horse,horse,cat,lolly,mal_plain_mal_sws,critical,2/2/2017,10:50,top_img,true,2403,2,2_1_1_0,word_2_word_3_word_1,different,horse,English_Speech,preschool,megan,,,,,,,,,female
3MXnJ,19,11,mal_plain,mal_sws,1,lorry,cow,cow,lorry,cow,book,mal_plain_mal_sws,critical,2/2/2017,10:50,top_img,true,2960,2,1_2_2_1,word_2_word_3_word_1,near,lorry,English_Speech,preschool,megan,,,,,,,,,female
3MXnJ,19,11,mal_plain,mal_sws,2,lorry,cow,cow,lorry,cow,book,mal_plain_mal_sws,critical,2/2/2017,10:50,left,true,3032,2,1_2_2_1,word_2_word_3_word_1,near,cow,English_Speech,preschool,megan,,,,,,,,,female
3MXnJ,19,11,mal_plain,mal_sws,3,lorry,cow,cow,lorry,cow,book,mal_plain_mal_sws,critical,2/2/2017,10:50,right,false,2043,1,1_2_2_1,word_2_word_3_word_1,near,book,English_Speech,preschool,megan,,,,,,,,,female
3MXnJ,20,20,mal_plain,mal_sws,1,apple,rabbit,rabbit,apple,jumper,rabbit,mal_plain_mal_sws,critical,2/2/2017,10:50,top_img,true,3367,2,1_2_2_1,word_3_word_1_word_2,near,apple,English_Speech,preschool,megan,,,,,,,,,female
3MXnJ,20,20,mal_plain,mal_sws,2,apple,rabbit,rabbit,apple,jumper,rabbit,mal_plain_mal_sws,critical,2/2/2017,10:50,right,true,2130,2,1_2_2_1,word_3_word_1_word_2,near,rabbit,English_Speech,preschool,megan,,,,,,,,,female
3MXnJ,20,20,mal_plain,mal_sws,3,apple,rabbit,rabbit,apple,jumper,rabbit,mal_plain_mal_sws,critical,2/2/2017,10:50,right,true,919,6,1_2_2_1,word_3_word_1_word_2,near,rabbit,English_Speech,preschool,megan,,,,,,,,,female
3MXnJ,21,17,mal_plain,mal_sws,1,hand,ambulance,cake,hand,cake,ambulance,mal_plain_mal_sws,critical,2/2/2017,10:50,top_img,true,3730,2,1_2_2_0,word_3_word_1_word_2,different,hand,English_Speech,preschool,megan,,,,,,,,,female
3MXnJ,21,17,mal_plain,mal_sws,2,hand,ambulance,cake,hand,cake,ambulance,mal_plain_mal_sws,critical,2/2/2017,10:50,right,true,2941,1,1_2_2_0,word_3_word_1_word_2,different,ambulance,English_Speech,preschool,megan,,,,,,,,,female
3MXnJ,21,17,mal_plain,mal_sws,3,hand,ambulance,cake,hand,cake,ambulance,mal_plain_mal_sws,critical,2/2/2017,10:50,left,true,1922,1,1_2_2_0,word_3_word_1_word_2,different,cake,English_Speech,preschool,megan,,,,,,,,,female
3MXnJ,22,8,mal_plain,mal_sws,1,wellyboots,fire_engine,ear,wellyboots,ear,fire_engine,mal_plain_mal_sws,critical,2/2/2017,10:50,top_img,true,4034,2,1_2_2_0,word_1_word_3_word_2,different,wellyboots,English_Speech,preschool,megan,,,,,,,,,female
3MXnJ,22,8,mal_plain,mal_sws,2,wellyboots,fire_engine,ear,wellyboots,ear,fire_engine,mal_plain_mal_sws,critical,2/2/2017,10:50,right,true,2950,1,1_2_2_0,word_1_word_3_word_2,different,fire_engine,English_Speech,preschool,megan,,,,,,,,,female
3MXnJ,22,8,mal_plain,mal_sws,3,wellyboots,fire_engine,ear,wellyboots,ear,fire_engine,mal_plain_mal_sws,critical,2/2/2017,10:50,left,true,2325,2,1_2_2_0,word_1_word_3_word_2,different,ear,English_Speech,preschool,megan,,,,,,,,,female
3MXnJ,23,22,mal_plain,mal_sws,1,bike,dog,doctor,bike,doctor,dog,mal_plain_mal_sws,critical,2/2/2017,10:50,top_img,true,3563,1,2_1_2_0,word_1_word_3_word_2,different,bike,English_Speech,preschool,megan,,,,,,,,,female
3MXnJ,23,22,mal_plain,mal_sws,2,bike,dog,doctor,bike,doctor,dog,mal_plain_mal_sws,critical,2/2/2017,10:50,right,true,3066,2,2_1_2_0,word_1_word_3_word_2,different,dog,English_Speech,preschool,megan,,,,,,,,,female
3MXnJ,23,22,mal_plain,mal_sws,3,bike,dog,doctor,bike,doctor,dog,mal_plain_mal_sws,critical,2/2/2017,10:50,left,true,2009,2,2_1_2_0,word_1_word_3_word_2,different,doctor,English_Speech,preschool,megan,,,,,,,,,female
3MXnJ,24,4,mal_plain,mal_sws,1,flower,coat,coat,flower,strawberry,coat,mal_plain_mal_sws,critical,2/2/2017,10:50,top_img,true,2506,2,2_1_1_1,word_3_word_2_word_1,near,flower,English_Speech,preschool,megan,,,,,,,,,female
3MXnJ,24,4,mal_plain,mal_sws,2,flower,coat,coat,flower,strawberry,coat,mal_plain_mal_sws,critical,2/2/2017,10:50,right,true,3024,2,2_1_1_1,word_3_word_2_word_1,near,coat,English_Speech,preschool,megan,,,,,,,,,female
3MXnJ,24,4,mal_plain,mal_sws,3,flower,coat,coat,flower,strawberry,coat,mal_plain_mal_sws,critical,2/2/2017,10:50,left,false,3165,1,2_1_1_1,word_3_word_2_word_1,near,strawberry,English_Speech,preschool,megan,,,,,,,,,female
3MXnJ,25,16,mal_plain,mal_sws,1,paintbrush,chair,paintbrush,paintbrush,banana,chair,mal_plain_mal_sws,critical,2/2/2017,10:50,top_img,true,3073,1,1_2_1_1,word_1_word_2_word_3,far,paintbrush,English_Speech,preschool,megan,,,,,,,,,female
3MXnJ,25,16,mal_plain,mal_sws,2,paintbrush,chair,paintbrush,paintbrush,banana,chair,mal_plain_mal_sws,critical,2/2/2017,10:50,right,true,3426,1,1_2_1_1,word_1_word_2_word_3,far,chair,English_Speech,preschool,megan,,,,,,,,,female
3MXnJ,25,16,mal_plain,mal_sws,3,paintbrush,chair,paintbrush,paintbrush,banana,chair,mal_plain_mal_sws,critical,2/2/2017,10:50,left,false,4259,1,1_2_1_1,word_1_word_2_word_3,far,banana,English_Speech,preschool,megan,,,,,,,,,female
