subject_id,trial_number,trial_id,plain,sws,instruction_number,sound1_item,sound2_item,sound3_item,top_image,left_image,right_image,sound_gender,trial_type,date_stamp,time_stamp,side_chosen,accuracy,rt,play_counter,order,pic_position,distance,chosen_pic,test_lang,testing_loc,tester,date_of_birth,ethnicity,native_lang,other_langs,parental_occ,dev_info,birth_order,num_siblings,gender
adNVz,1,0,fem_plain,fem_sws,1,fireman,glasses,fireman,glasses,tractor,fireman,fem_plain_fem_sws,training,2/1/2017,10:39,right,true,3566,4,1_2_1_1,word_2_word_3_word_1,far,fireman,English_Speech,preschool,hanna,2013-02-23,,English,Telugu,,,,0,male
adNVz,1,0,fem_plain,fem_sws,2,fireman,glasses,fireman,glasses,tractor,fireman,fem_plain_fem_sws,training,2/1/2017,10:39,top_img,true,2716,2,1_2_1_1,word_2_word_3_word_1,far,glasses,English_Speech,preschool,hanna,2013-02-23,,English,Telugu,,,,0,male
adNVz,1,0,fem_plain,fem_sws,3,fireman,glasses,fireman,glasses,tractor,fireman,fem_plain_fem_sws,training,2/1/2017,10:39,right,true,9050,4,1_2_1_1,word_2_word_3_word_1,far,fireman,English_Speech,preschool,hanna,2013-02-23,,English,Telugu,,,,0,male
adNVz,2,10,fem_plain,fem_sws,1,tshirt,hat,pig,tshirt,hat,pig,fem_plain_fem_sws,critical,2/1/2017,10:39,top_img,true,5157,2,1_2_2_0,word_2_word_3_word_1,different,tshirt,English_Speech,preschool,hanna,2013-02-23,,English,Telugu,,,,0,male
adNVz,2,10,fem_plain,fem_sws,2,tshirt,hat,pig,tshirt,hat,pig,fem_plain_fem_sws,critical,2/1/2017,10:39,left,true,2626,1,1_2_2_0,word_2_word_3_word_1,different,hat,English_Speech,preschool,hanna,2013-02-23,,English,Telugu,,,,0,male
adNVz,2,10,fem_plain,fem_sws,3,tshirt,hat,pig,tshirt,hat,pig,fem_plain_fem_sws,critical,2/1/2017,10:39,right,true,2142,2,1_2_2_0,word_2_word_3_word_1,different,pig,English_Speech,preschool,hanna,2013-02-23,,English,Telugu,,,,0,male
adNVz,3,3,fem_plain,fem_sws,1,trousers,nose,nose,nose,telephone,trousers,fem_plain_fem_sws,critical,2/1/2017,10:39,right,true,2601,2,1_2_2_1,word_2_word_3_word_1,near,trousers,English_Speech,preschool,hanna,2013-02-23,,English,Telugu,,,,0,male
adNVz,3,3,fem_plain,fem_sws,2,trousers,nose,nose,nose,telephone,trousers,fem_plain_fem_sws,critical,2/1/2017,10:39,top_img,true,2778,2,1_2_2_1,word_2_word_3_word_1,near,nose,English_Speech,preschool,hanna,2013-02-23,,English,Telugu,,,,0,male
adNVz,3,3,fem_plain,fem_sws,3,trousers,nose,nose,nose,telephone,trousers,fem_plain_fem_sws,critical,2/1/2017,10:39,left,false,3913,5,1_2_2_1,word_2_word_3_word_1,near,telephone,English_Speech,preschool,hanna,2013-02-23,,English,Telugu,,,,0,male
adNVz,4,18,fem_plain,fem_sws,1,ball,camera,camera,ball,camera,raspberry,fem_plain_fem_sws,critical,2/1/2017,10:39,top_img,true,3279,2,2_1_1_1,word_1_word_3_word_2,near,ball,English_Speech,preschool,hanna,2013-02-23,,English,Telugu,,,,0,male
adNVz,4,18,fem_plain,fem_sws,2,ball,camera,camera,ball,camera,raspberry,fem_plain_fem_sws,critical,2/1/2017,10:39,left,true,2576,4,2_1_1_1,word_1_word_3_word_2,near,camera,English_Speech,preschool,hanna,2013-02-23,,English,Telugu,,,,0,male
adNVz,4,18,fem_plain,fem_sws,3,ball,camera,camera,ball,camera,raspberry,fem_plain_fem_sws,critical,2/1/2017,10:39,right,false,7338,4,2_1_1_1,word_1_word_3_word_2,near,raspberry,English_Speech,preschool,hanna,2013-02-23,,English,Telugu,,,,0,male
adNVz,5,17,fem_plain,fem_sws,1,hand,ambulance,ambulance,cake,hand,ambulance,fem_plain_fem_sws,critical,2/1/2017,10:39,left,true,3295,2,1_2_2_1,word_1_word_3_word_2,near,hand,English_Speech,preschool,hanna,2013-02-23,,English,Telugu,,,,0,male
adNVz,5,17,fem_plain,fem_sws,2,hand,ambulance,ambulance,cake,hand,ambulance,fem_plain_fem_sws,critical,2/1/2017,10:39,right,true,2824,1,1_2_2_1,word_1_word_3_word_2,near,ambulance,English_Speech,preschool,hanna,2013-02-23,,English,Telugu,,,,0,male
adNVz,5,17,fem_plain,fem_sws,3,hand,ambulance,ambulance,cake,hand,ambulance,fem_plain_fem_sws,critical,2/1/2017,10:39,right,true,1714,3,1_2_2_1,word_1_word_3_word_2,near,ambulance,English_Speech,preschool,hanna,2013-02-23,,English,Telugu,,,,0,male
adNVz,6,19,fem_plain,fem_sws,1,tree,santa,building_blocks,building_blocks,tree,santa,fem_plain_fem_sws,critical,2/1/2017,10:39,left,true,2808,2,2_1_1_0,word_2_word_3_word_1,different,tree,English_Speech,preschool,hanna,2013-02-23,,English,Telugu,,,,0,male
adNVz,6,19,fem_plain,fem_sws,2,tree,santa,building_blocks,building_blocks,tree,santa,fem_plain_fem_sws,critical,2/1/2017,10:39,right,true,3355,1,2_1_1_0,word_2_word_3_word_1,different,santa,English_Speech,preschool,hanna,2013-02-23,,English,Telugu,,,,0,male
adNVz,6,19,fem_plain,fem_sws,3,tree,santa,building_blocks,building_blocks,tree,santa,fem_plain_fem_sws,critical,2/1/2017,10:39,right,false,5561,2,2_1_1_0,word_2_word_3_word_1,different,santa,English_Speech,preschool,hanna,2013-02-23,,English,Telugu,,,,0,male
adNVz,7,15,fem_plain,fem_sws,1,beans,slide,beans,beans,pencil,slide,fem_plain_fem_sws,critical,2/1/2017,10:39,top_img,true,2318,2,2_1_2_1,word_3_word_2_word_1,far,beans,English_Speech,preschool,hanna,2013-02-23,,English,Telugu,,,,0,male
adNVz,7,15,fem_plain,fem_sws,2,beans,slide,beans,beans,pencil,slide,fem_plain_fem_sws,critical,2/1/2017,10:39,right,true,2399,2,2_1_2_1,word_3_word_2_word_1,far,slide,English_Speech,preschool,hanna,2013-02-23,,English,Telugu,,,,0,male
adNVz,7,15,fem_plain,fem_sws,3,beans,slide,beans,beans,pencil,slide,fem_plain_fem_sws,critical,2/1/2017,10:39,right,false,808,5,2_1_2_1,word_3_word_2_word_1,far,slide,English_Speech,preschool,hanna,2013-02-23,,English,Telugu,,,,0,male
adNVz,8,7,fem_plain,fem_sws,1,lolly,cat,horse,cat,lolly,horse,fem_plain_fem_sws,critical,2/1/2017,10:39,left,true,3373,2,2_1_2_0,word_3_word_1_word_2,different,lolly,English_Speech,preschool,hanna,2013-02-23,,English,Telugu,,,,0,male
adNVz,8,7,fem_plain,fem_sws,2,lolly,cat,horse,cat,lolly,horse,fem_plain_fem_sws,critical,2/1/2017,10:39,top_img,true,3298,2,2_1_2_0,word_3_word_1_word_2,different,cat,English_Speech,preschool,hanna,2013-02-23,,English,Telugu,,,,0,male
adNVz,8,7,fem_plain,fem_sws,3,lolly,cat,horse,cat,lolly,horse,fem_plain_fem_sws,critical,2/1/2017,10:39,right,true,7004,2,2_1_2_0,word_3_word_1_word_2,different,horse,English_Speech,preschool,hanna,2013-02-23,,English,Telugu,,,,0,male
adNVz,9,6,fem_plain,fem_sws,1,peas,bird,peas,peas,bird,carrot,fem_plain_fem_sws,critical,2/1/2017,10:39,top_img,true,2732,2,2_1_2_1,word_2_word_1_word_3,far,peas,English_Speech,preschool,hanna,2013-02-23,,English,Telugu,,,,0,male
adNVz,9,6,fem_plain,fem_sws,2,peas,bird,peas,peas,bird,carrot,fem_plain_fem_sws,critical,2/1/2017,10:39,left,true,2385,1,2_1_2_1,word_2_word_1_word_3,far,bird,English_Speech,preschool,hanna,2013-02-23,,English,Telugu,,,,0,male
adNVz,9,6,fem_plain,fem_sws,3,peas,bird,peas,peas,bird,carrot,fem_plain_fem_sws,critical,2/1/2017,10:39,right,false,3706,1,2_1_2_1,word_2_word_1_word_3,far,carrot,English_Speech,preschool,hanna,2013-02-23,,English,Telugu,,,,0,male
adNVz,10,2,fem_plain,fem_sws,1,fork,bed,chicken,bed,fork,chicken,fem_plain_fem_sws,critical,2/1/2017,10:39,left,true,259,4,2_1_1_0,word_1_word_3_word_2,different,fork,English_Speech,preschool,hanna,2013-02-23,,English,Telugu,,,,0,male
adNVz,10,2,fem_plain,fem_sws,2,fork,bed,chicken,bed,fork,chicken,fem_plain_fem_sws,critical,2/1/2017,10:39,top_img,true,3456,2,2_1_1_0,word_1_word_3_word_2,different,bed,English_Speech,preschool,hanna,2013-02-23,,English,Telugu,,,,0,male
adNVz,10,2,fem_plain,fem_sws,3,fork,bed,chicken,bed,fork,chicken,fem_plain_fem_sws,critical,2/1/2017,10:39,right,true,1676,4,2_1_1_0,word_1_word_3_word_2,different,chicken,English_Speech,preschool,hanna,2013-02-23,,English,Telugu,,,,0,male
adNVz,11,20,fem_plain,fem_sws,1,jumper,rabbit,jumper,jumper,rabbit,apple,fem_plain_fem_sws,critical,2/1/2017,10:39,top_img,true,2565,2,2_1_2_1,word_1_word_2_word_3,far,jumper,English_Speech,preschool,hanna,2013-02-23,,English,Telugu,,,,0,male
adNVz,11,20,fem_plain,fem_sws,2,jumper,rabbit,jumper,jumper,rabbit,apple,fem_plain_fem_sws,critical,2/1/2017,10:39,left,true,2172,1,2_1_2_1,word_1_word_2_word_3,far,rabbit,English_Speech,preschool,hanna,2013-02-23,,English,Telugu,,,,0,male
adNVz,11,20,fem_plain,fem_sws,3,jumper,rabbit,jumper,jumper,rabbit,apple,fem_plain_fem_sws,critical,2/1/2017,10:39,right,false,3541,1,2_1_2_1,word_1_word_2_word_3,far,apple,English_Speech,preschool,hanna,2013-02-23,,English,Telugu,,,,0,male
adNVz,12,1,fem_plain,fem_sws,1,train,baby,spoon,baby,train,spoon,fem_plain_fem_sws,critical,2/1/2017,10:39,left,true,3158,2,2_1_1_0,word_2_word_3_word_1,different,train,English_Speech,preschool,hanna,2013-02-23,,English,Telugu,,,,0,male
adNVz,12,1,fem_plain,fem_sws,2,train,baby,spoon,baby,train,spoon,fem_plain_fem_sws,critical,2/1/2017,10:39,top_img,true,3939,1,2_1_1_0,word_2_word_3_word_1,different,baby,English_Speech,preschool,hanna,2013-02-23,,English,Telugu,,,,0,male
adNVz,12,1,fem_plain,fem_sws,3,train,baby,spoon,baby,train,spoon,fem_plain_fem_sws,critical,2/1/2017,10:39,right,true,5274,2,2_1_1_0,word_2_word_3_word_1,different,spoon,English_Speech,preschool,hanna,2013-02-23,,English,Telugu,,,,0,male
adNVz,13,12,fem_plain,fem_sws,1,foot,gloves,foot,yoghurt,gloves,foot,fem_plain_fem_sws,critical,2/1/2017,10:39,right,true,2546,4,1_2_1_1,word_2_word_3_word_1,far,foot,English_Speech,preschool,hanna,2013-02-23,,English,Telugu,,,,0,male
adNVz,13,12,fem_plain,fem_sws,2,foot,gloves,foot,yoghurt,gloves,foot,fem_plain_fem_sws,critical,2/1/2017,10:39,left,true,3199,2,1_2_1_1,word_2_word_3_word_1,far,gloves,English_Speech,preschool,hanna,2013-02-23,,English,Telugu,,,,0,male
adNVz,13,12,fem_plain,fem_sws,3,foot,gloves,foot,yoghurt,gloves,foot,fem_plain_fem_sws,critical,2/1/2017,10:39,left,false,10244,6,1_2_1_1,word_2_word_3_word_1,far,gloves,English_Speech,preschool,hanna,2013-02-23,,English,Telugu,,,,0,male
adNVz,14,14,fem_plain,fem_sws,1,shoes,cheese,cheese,shoes,cheese,door,fem_plain_fem_sws,critical,2/1/2017,10:39,top_img,true,3389,2,2_1_1_1,word_2_word_1_word_3,near,shoes,English_Speech,preschool,hanna,2013-02-23,,English,Telugu,,,,0,male
adNVz,14,14,fem_plain,fem_sws,2,shoes,cheese,cheese,shoes,cheese,door,fem_plain_fem_sws,critical,2/1/2017,10:39,left,true,2911,2,2_1_1_1,word_2_word_1_word_3,near,cheese,English_Speech,preschool,hanna,2013-02-23,,English,Telugu,,,,0,male
adNVz,14,14,fem_plain,fem_sws,3,shoes,cheese,cheese,shoes,cheese,door,fem_plain_fem_sws,critical,2/1/2017,10:39,left,true,5115,1,2_1_1_1,word_2_word_1_word_3,near,cheese,English_Speech,preschool,hanna,2013-02-23,,English,Telugu,,,,0,male
adNVz,15,23,fem_plain,fem_sws,1,table,bath,table,bath,table,teddy_bear,fem_plain_fem_sws,critical,2/1/2017,10:39,left,true,7146,2,1_2_1_1,word_1_word_3_word_2,far,table,English_Speech,preschool,hanna,2013-02-23,,English,Telugu,,,,0,male
adNVz,15,23,fem_plain,fem_sws,2,table,bath,table,bath,table,teddy_bear,fem_plain_fem_sws,critical,2/1/2017,10:39,left,false,222,2,1_2_1_1,word_1_word_3_word_2,far,table,English_Speech,preschool,hanna,2013-02-23,,English,Telugu,,,,0,male
adNVz,15,23,fem_plain,fem_sws,3,table,bath,table,bath,table,teddy_bear,fem_plain_fem_sws,critical,2/1/2017,10:39,top_img,false,2097,1,1_2_1_1,word_1_word_3_word_2,far,bath,English_Speech,preschool,hanna,2013-02-23,,English,Telugu,,,,0,male
adNVz,16,9,fem_plain,fem_sws,1,grapes,pizza,window,grapes,pizza,window,fem_plain_fem_sws,critical,2/1/2017,10:39,top_img,true,3778,4,2_1_1_0,word_3_word_1_word_2,different,grapes,English_Speech,preschool,hanna,2013-02-23,,English,Telugu,,,,0,male
adNVz,16,9,fem_plain,fem_sws,2,grapes,pizza,window,grapes,pizza,window,fem_plain_fem_sws,critical,2/1/2017,10:39,left,true,4030,2,2_1_1_0,word_3_word_1_word_2,different,pizza,English_Speech,preschool,hanna,2013-02-23,,English,Telugu,,,,0,male
adNVz,16,9,fem_plain,fem_sws,3,grapes,pizza,window,grapes,pizza,window,fem_plain_fem_sws,critical,2/1/2017,10:39,right,true,4008,2,2_1_1_0,word_3_word_1_word_2,different,window,English_Speech,preschool,hanna,2013-02-23,,English,Telugu,,,,0,male
adNVz,17,8,fem_plain,fem_sws,1,ear,fire_engine,wellyboots,ear,wellyboots,fire_engine,fem_plain_fem_sws,critical,2/1/2017,10:39,top_img,true,2476,2,2_1_1_0,word_3_word_1_word_2,different,ear,English_Speech,preschool,hanna,2013-02-23,,English,Telugu,,,,0,male
adNVz,17,8,fem_plain,fem_sws,2,ear,fire_engine,wellyboots,ear,wellyboots,fire_engine,fem_plain_fem_sws,critical,2/1/2017,10:39,right,true,2949,1,2_1_1_0,word_3_word_1_word_2,different,fire_engine,English_Speech,preschool,hanna,2013-02-23,,English,Telugu,,,,0,male
adNVz,17,8,fem_plain,fem_sws,3,ear,fire_engine,wellyboots,ear,wellyboots,fire_engine,fem_plain_fem_sws,critical,2/1/2017,10:39,right,false,7247,2,2_1_1_0,word_3_word_1_word_2,different,fire_engine,English_Speech,preschool,hanna,2013-02-23,,English,Telugu,,,,0,male
adNVz,18,24,fem_plain,fem_sws,1,socks,fish,sink,socks,fish,sink,fem_plain_fem_sws,critical,2/1/2017,10:39,top_img,true,3070,2,2_1_1_0,word_3_word_2_word_1,different,socks,English_Speech,preschool,hanna,2013-02-23,,English,Telugu,,,,0,male
adNVz,18,24,fem_plain,fem_sws,2,socks,fish,sink,socks,fish,sink,fem_plain_fem_sws,critical,2/1/2017,10:39,left,true,2256,2,2_1_1_0,word_3_word_2_word_1,different,fish,English_Speech,preschool,hanna,2013-02-23,,English,Telugu,,,,0,male
adNVz,18,24,fem_plain,fem_sws,3,socks,fish,sink,socks,fish,sink,fem_plain_fem_sws,critical,2/1/2017,10:39,right,true,6781,2,2_1_1_0,word_3_word_2_word_1,different,sink,English_Speech,preschool,hanna,2013-02-23,,English,Telugu,,,,0,male
adNVz,19,22,fem_plain,fem_sws,1,bike,doctor,doctor,dog,bike,doctor,fem_plain_fem_sws,critical,2/1/2017,10:39,left,true,3219,2,1_2_2_1,word_2_word_1_word_3,near,bike,English_Speech,preschool,hanna,2013-02-23,,English,Telugu,,,,0,male
adNVz,19,22,fem_plain,fem_sws,2,bike,doctor,doctor,dog,bike,doctor,fem_plain_fem_sws,critical,2/1/2017,10:39,right,true,3409,1,1_2_2_1,word_2_word_1_word_3,near,doctor,English_Speech,preschool,hanna,2013-02-23,,English,Telugu,,,,0,male
adNVz,19,22,fem_plain,fem_sws,3,bike,doctor,doctor,dog,bike,doctor,fem_plain_fem_sws,critical,2/1/2017,10:39,right,true,3875,1,1_2_2_1,word_2_word_1_word_3,near,doctor,English_Speech,preschool,hanna,2013-02-23,,English,Telugu,,,,0,male
adNVz,20,5,fem_plain,fem_sws,1,car,orange,mouth,mouth,orange,car,fem_plain_fem_sws,critical,2/1/2017,10:39,right,true,2824,2,2_1_2_0,word_3_word_1_word_2,different,car,English_Speech,preschool,hanna,2013-02-23,,English,Telugu,,,,0,male
adNVz,20,5,fem_plain,fem_sws,2,car,orange,mouth,mouth,orange,car,fem_plain_fem_sws,critical,2/1/2017,10:39,left,true,4654,1,2_1_2_0,word_3_word_1_word_2,different,orange,English_Speech,preschool,hanna,2013-02-23,,English,Telugu,,,,0,male
adNVz,20,5,fem_plain,fem_sws,3,car,orange,mouth,mouth,orange,car,fem_plain_fem_sws,critical,2/1/2017,10:39,top_img,true,5944,2,2_1_2_0,word_3_word_1_word_2,different,mouth,English_Speech,preschool,hanna,2013-02-23,,English,Telugu,,,,0,male
adNVz,21,21,fem_plain,fem_sws,1,sheep,eye,frog,frog,eye,sheep,fem_plain_fem_sws,critical,2/1/2017,10:39,right,true,2184,2,1_2_2_0,word_1_word_3_word_2,different,sheep,English_Speech,preschool,hanna,2013-02-23,,English,Telugu,,,,0,male
adNVz,21,21,fem_plain,fem_sws,2,sheep,eye,frog,frog,eye,sheep,fem_plain_fem_sws,critical,2/1/2017,10:39,left,true,3440,2,1_2_2_0,word_1_word_3_word_2,different,eye,English_Speech,preschool,hanna,2013-02-23,,English,Telugu,,,,0,male
adNVz,21,21,fem_plain,fem_sws,3,sheep,eye,frog,frog,eye,sheep,fem_plain_fem_sws,critical,2/1/2017,10:39,top_img,true,3205,2,1_2_2_0,word_1_word_3_word_2,different,frog,English_Speech,preschool,hanna,2013-02-23,,English,Telugu,,,,0,male
adNVz,22,11,fem_plain,fem_sws,1,cow,lorry,book,lorry,cow,book,fem_plain_fem_sws,critical,2/1/2017,10:39,left,true,2918,2,2_1_2_0,word_2_word_3_word_1,different,cow,English_Speech,preschool,hanna,2013-02-23,,English,Telugu,,,,0,male
adNVz,22,11,fem_plain,fem_sws,2,cow,lorry,book,lorry,cow,book,fem_plain_fem_sws,critical,2/1/2017,10:39,top_img,true,2407,1,2_1_2_0,word_2_word_3_word_1,different,lorry,English_Speech,preschool,hanna,2013-02-23,,English,Telugu,,,,0,male
adNVz,22,11,fem_plain,fem_sws,3,cow,lorry,book,lorry,cow,book,fem_plain_fem_sws,critical,2/1/2017,10:39,right,true,5081,2,2_1_2_0,word_2_word_3_word_1,different,book,English_Speech,preschool,hanna,2013-02-23,,English,Telugu,,,,0,male
adNVz,23,4,fem_plain,fem_sws,1,flower,strawberry,strawberry,flower,coat,strawberry,fem_plain_fem_sws,critical,2/1/2017,10:39,top_img,true,2276,2,2_1_1_1,word_3_word_1_word_2,near,flower,English_Speech,preschool,hanna,2013-02-23,,English,Telugu,,,,0,male
adNVz,23,4,fem_plain,fem_sws,2,flower,strawberry,strawberry,flower,coat,strawberry,fem_plain_fem_sws,critical,2/1/2017,10:39,right,true,2749,1,2_1_1_1,word_3_word_1_word_2,near,strawberry,English_Speech,preschool,hanna,2013-02-23,,English,Telugu,,,,0,male
adNVz,23,4,fem_plain,fem_sws,3,flower,strawberry,strawberry,flower,coat,strawberry,fem_plain_fem_sws,critical,2/1/2017,10:39,right,true,2837,1,2_1_1_1,word_3_word_1_word_2,near,strawberry,English_Speech,preschool,hanna,2013-02-23,,English,Telugu,,,,0,male
adNVz,24,16,fem_plain,fem_sws,1,paintbrush,chair,banana,banana,paintbrush,chair,fem_plain_fem_sws,critical,2/1/2017,10:39,left,true,3139,2,1_2_2_0,word_2_word_1_word_3,different,paintbrush,English_Speech,preschool,hanna,2013-02-23,,English,Telugu,,,,0,male
adNVz,24,16,fem_plain,fem_sws,2,paintbrush,chair,banana,banana,paintbrush,chair,fem_plain_fem_sws,critical,2/1/2017,10:39,right,true,2872,1,1_2_2_0,word_2_word_1_word_3,different,chair,English_Speech,preschool,hanna,2013-02-23,,English,Telugu,,,,0,male
adNVz,24,16,fem_plain,fem_sws,3,paintbrush,chair,banana,banana,paintbrush,chair,fem_plain_fem_sws,critical,2/1/2017,10:39,top_img,true,2372,2,1_2_2_0,word_2_word_1_word_3,different,banana,English_Speech,preschool,hanna,2013-02-23,,English,Telugu,,,,0,male
adNVz,25,13,fem_plain,fem_sws,1,airplane,bread,airplane,airplane,toothbrush,bread,fem_plain_fem_sws,critical,2/1/2017,10:39,top_img,true,2246,4,1_2_1_1,word_2_word_1_word_3,far,airplane,English_Speech,preschool,hanna,2013-02-23,,English,Telugu,,,,0,male
adNVz,25,13,fem_plain,fem_sws,2,airplane,bread,airplane,airplane,toothbrush,bread,fem_plain_fem_sws,critical,2/1/2017,10:39,right,true,2778,1,1_2_1_1,word_2_word_1_word_3,far,bread,English_Speech,preschool,hanna,2013-02-23,,English,Telugu,,,,0,male
adNVz,25,13,fem_plain,fem_sws,3,airplane,bread,airplane,airplane,toothbrush,bread,fem_plain_fem_sws,critical,2/1/2017,10:39,top_img,true,3411,1,1_2_1_1,word_2_word_1_word_3,far,airplane,English_Speech,preschool,hanna,2013-02-23,,English,Telugu,,,,0,male
