subject_id,trial_number,trial_id,plain,sws,instruction_number,sound1_item,sound2_item,sound3_item,top_image,left_image,right_image,sound_gender,trial_type,date_stamp,time_stamp,side_chosen,accuracy,rt,play_counter,order,pic_position,distance,chosen_pic,test_lang,testing_loc,tester,date_of_birth,ethnicity,native_lang,other_langs,parental_occ,dev_info,birth_order,num_siblings,gender
AQUYH,1,0,mal_plain,fem_sws,1,glasses,tractor,fireman,tractor,fireman,glasses,mal_plain_fem_sws,training,2/1/2017,10:34,top_img,false,6145,1,2_1_1_0,word_3_word_1_word_2,different,tractor,English_Speech,preschool,katy,,,,,,,,,male
AQUYH,1,0,mal_plain,fem_sws,2,glasses,tractor,fireman,tractor,fireman,glasses,mal_plain_fem_sws,training,2/1/2017,10:34,right,false,78,1,2_1_1_0,word_3_word_1_word_2,different,glasses,English_Speech,preschool,katy,,,,,,,,,male
AQUYH,1,0,mal_plain,fem_sws,3,glasses,tractor,fireman,tractor,fireman,glasses,mal_plain_fem_sws,training,2/1/2017,10:34,top_img,false,248,1,2_1_1_0,word_3_word_1_word_2,different,tractor,English_Speech,preschool,katy,,,,,,,,,male
AQUYH,2,24,mal_plain,fem_sws,1,socks,sink,fish,socks,sink,fish,mal_plain_fem_sws,critical,2/1/2017,10:34,top_img,true,2374,1,2_1_2_0,word_3_word_1_word_2,different,socks,English_Speech,preschool,katy,,,,,,,,,male
AQUYH,2,24,mal_plain,fem_sws,2,socks,sink,fish,socks,sink,fish,mal_plain_fem_sws,critical,2/1/2017,10:34,left,true,2965,4,2_1_2_0,word_3_word_1_word_2,different,sink,English_Speech,preschool,katy,,,,,,,,,male
AQUYH,2,24,mal_plain,fem_sws,3,socks,sink,fish,socks,sink,fish,mal_plain_fem_sws,critical,2/1/2017,10:34,right,true,5942,2,2_1_2_0,word_3_word_1_word_2,different,fish,English_Speech,preschool,katy,,,,,,,,,male
AQUYH,3,19,mal_plain,fem_sws,1,santa,tree,santa,building_blocks,tree,santa,mal_plain_fem_sws,critical,2/1/2017,10:34,right,true,3194,1,2_1_2_1,word_2_word_3_word_1,far,santa,English_Speech,preschool,katy,,,,,,,,,male
AQUYH,3,19,mal_plain,fem_sws,2,santa,tree,santa,building_blocks,tree,santa,mal_plain_fem_sws,critical,2/1/2017,10:34,left,true,2263,11,2_1_2_1,word_2_word_3_word_1,far,tree,English_Speech,preschool,katy,,,,,,,,,male
AQUYH,3,19,mal_plain,fem_sws,3,santa,tree,santa,building_blocks,tree,santa,mal_plain_fem_sws,critical,2/1/2017,10:34,top_img,false,3202,2,2_1_2_1,word_2_word_3_word_1,far,building_blocks,English_Speech,preschool,katy,,,,,,,,,male
AQUYH,4,7,mal_plain,fem_sws,1,horse,lolly,horse,lolly,horse,cat,mal_plain_fem_sws,critical,2/1/2017,10:34,left,true,2772,1,2_1_2_1,word_1_word_2_word_3,far,horse,English_Speech,preschool,katy,,,,,,,,,male
AQUYH,4,7,mal_plain,fem_sws,2,horse,lolly,horse,lolly,horse,cat,mal_plain_fem_sws,critical,2/1/2017,10:34,top_img,true,2964,2,2_1_2_1,word_1_word_2_word_3,far,lolly,English_Speech,preschool,katy,,,,,,,,,male
AQUYH,4,7,mal_plain,fem_sws,3,horse,lolly,horse,lolly,horse,cat,mal_plain_fem_sws,critical,2/1/2017,10:34,right,false,4097,2,2_1_2_1,word_1_word_2_word_3,far,cat,English_Speech,preschool,katy,,,,,,,,,male
AQUYH,5,10,mal_plain,fem_sws,1,tshirt,hat,hat,pig,hat,tshirt,mal_plain_fem_sws,critical,2/1/2017,10:34,right,true,3063,2,1_2_2_1,word_1_word_3_word_2,near,tshirt,English_Speech,preschool,katy,,,,,,,,,male
AQUYH,5,10,mal_plain,fem_sws,2,tshirt,hat,hat,pig,hat,tshirt,mal_plain_fem_sws,critical,2/1/2017,10:34,left,true,1835,1,1_2_2_1,word_1_word_3_word_2,near,hat,English_Speech,preschool,katy,,,,,,,,,male
AQUYH,5,10,mal_plain,fem_sws,3,tshirt,hat,hat,pig,hat,tshirt,mal_plain_fem_sws,critical,2/1/2017,10:34,top_img,false,1056,2,1_2_2_1,word_1_word_3_word_2,near,pig,English_Speech,preschool,katy,,,,,,,,,male
AQUYH,6,2,mal_plain,fem_sws,1,bed,chicken,bed,chicken,fork,bed,mal_plain_fem_sws,critical,2/1/2017,10:34,right,true,6957,2,1_2_1_1,word_2_word_3_word_1,far,bed,English_Speech,preschool,katy,,,,,,,,,male
AQUYH,6,2,mal_plain,fem_sws,2,bed,chicken,bed,chicken,fork,bed,mal_plain_fem_sws,critical,2/1/2017,10:34,top_img,true,3917,2,1_2_1_1,word_2_word_3_word_1,far,chicken,English_Speech,preschool,katy,,,,,,,,,male
AQUYH,6,2,mal_plain,fem_sws,3,bed,chicken,bed,chicken,fork,bed,mal_plain_fem_sws,critical,2/1/2017,10:34,left,false,3205,4,1_2_1_1,word_2_word_3_word_1,far,fork,English_Speech,preschool,katy,,,,,,,,,male
AQUYH,7,18,mal_plain,fem_sws,1,raspberry,camera,ball,ball,camera,raspberry,mal_plain_fem_sws,critical,2/1/2017,10:34,right,true,3617,2,1_2_2_0,word_1_word_3_word_2,different,raspberry,English_Speech,preschool,katy,,,,,,,,,male
AQUYH,7,18,mal_plain,fem_sws,2,raspberry,camera,ball,ball,camera,raspberry,mal_plain_fem_sws,critical,2/1/2017,10:34,left,true,1720,2,1_2_2_0,word_1_word_3_word_2,different,camera,English_Speech,preschool,katy,,,,,,,,,male
AQUYH,7,18,mal_plain,fem_sws,3,raspberry,camera,ball,ball,camera,raspberry,mal_plain_fem_sws,critical,2/1/2017,10:34,top_img,true,1772,4,1_2_2_0,word_1_word_3_word_2,different,ball,English_Speech,preschool,katy,,,,,,,,,male
AQUYH,8,21,mal_plain,fem_sws,1,frog,sheep,sheep,frog,eye,sheep,mal_plain_fem_sws,critical,2/1/2017,10:34,top_img,true,4764,2,1_2_2_1,word_1_word_3_word_2,near,frog,English_Speech,preschool,katy,,,,,,,,,male
AQUYH,8,21,mal_plain,fem_sws,2,frog,sheep,sheep,frog,eye,sheep,mal_plain_fem_sws,critical,2/1/2017,10:34,right,true,2315,2,1_2_2_1,word_1_word_3_word_2,near,sheep,English_Speech,preschool,katy,,,,,,,,,male
AQUYH,8,21,mal_plain,fem_sws,3,frog,sheep,sheep,frog,eye,sheep,mal_plain_fem_sws,critical,2/1/2017,10:34,right,true,4128,4,1_2_2_1,word_1_word_3_word_2,near,sheep,English_Speech,preschool,katy,,,,,,,,,male
AQUYH,9,11,mal_plain,fem_sws,1,lorry,cow,book,cow,lorry,book,mal_plain_fem_sws,critical,2/1/2017,10:34,left,true,2425,1,2_1_1_0,word_3_word_2_word_1,different,lorry,English_Speech,preschool,katy,,,,,,,,,male
AQUYH,9,11,mal_plain,fem_sws,2,lorry,cow,book,cow,lorry,book,mal_plain_fem_sws,critical,2/1/2017,10:34,top_img,true,2835,2,2_1_1_0,word_3_word_2_word_1,different,cow,English_Speech,preschool,katy,,,,,,,,,male
AQUYH,9,11,mal_plain,fem_sws,3,lorry,cow,book,cow,lorry,book,mal_plain_fem_sws,critical,2/1/2017,10:34,right,true,1224,2,2_1_1_0,word_3_word_2_word_1,different,book,English_Speech,preschool,katy,,,,,,,,,male
AQUYH,10,8,mal_plain,fem_sws,1,wellyboots,fire_engine,fire_engine,ear,wellyboots,fire_engine,mal_plain_fem_sws,critical,2/1/2017,10:34,left,true,2407,1,2_1_1_1,word_3_word_1_word_2,near,wellyboots,English_Speech,preschool,katy,,,,,,,,,male
AQUYH,10,8,mal_plain,fem_sws,2,wellyboots,fire_engine,fire_engine,ear,wellyboots,fire_engine,mal_plain_fem_sws,critical,2/1/2017,10:34,right,true,2621,1,2_1_1_1,word_3_word_1_word_2,near,fire_engine,English_Speech,preschool,katy,,,,,,,,,male
AQUYH,10,8,mal_plain,fem_sws,3,wellyboots,fire_engine,fire_engine,ear,wellyboots,fire_engine,mal_plain_fem_sws,critical,2/1/2017,10:34,top_img,false,1757,3,2_1_1_1,word_3_word_1_word_2,near,ear,English_Speech,preschool,katy,,,,,,,,,male
AQUYH,11,9,mal_plain,fem_sws,1,pizza,grapes,window,window,pizza,grapes,mal_plain_fem_sws,critical,2/1/2017,10:34,left,true,6476,2,2_1_2_0,word_2_word_1_word_3,different,pizza,English_Speech,preschool,katy,,,,,,,,,male
AQUYH,11,9,mal_plain,fem_sws,2,pizza,grapes,window,window,pizza,grapes,mal_plain_fem_sws,critical,2/1/2017,10:34,right,true,6679,2,2_1_2_0,word_2_word_1_word_3,different,grapes,English_Speech,preschool,katy,,,,,,,,,male
AQUYH,11,9,mal_plain,fem_sws,3,pizza,grapes,window,window,pizza,grapes,mal_plain_fem_sws,critical,2/1/2017,10:34,top_img,true,3368,2,2_1_2_0,word_2_word_1_word_3,different,window,English_Speech,preschool,katy,,,,,,,,,male
AQUYH,12,20,mal_plain,fem_sws,1,jumper,apple,jumper,apple,jumper,rabbit,mal_plain_fem_sws,critical,2/1/2017,10:34,left,true,2676,2,2_1_2_1,word_3_word_1_word_2,far,jumper,English_Speech,preschool,katy,,,,,,,,,male
AQUYH,12,20,mal_plain,fem_sws,2,jumper,apple,jumper,apple,jumper,rabbit,mal_plain_fem_sws,critical,2/1/2017,10:34,top_img,true,2203,2,2_1_2_1,word_3_word_1_word_2,far,apple,English_Speech,preschool,katy,,,,,,,,,male
AQUYH,12,20,mal_plain,fem_sws,3,jumper,apple,jumper,apple,jumper,rabbit,mal_plain_fem_sws,critical,2/1/2017,10:34,right,false,686,2,2_1_2_1,word_3_word_1_word_2,far,rabbit,English_Speech,preschool,katy,,,,,,,,,male
AQUYH,13,13,mal_plain,fem_sws,1,toothbrush,airplane,bread,bread,toothbrush,airplane,mal_plain_fem_sws,critical,2/1/2017,10:34,left,true,2330,1,2_1_1_0,word_3_word_1_word_2,different,toothbrush,English_Speech,preschool,katy,,,,,,,,,male
AQUYH,13,13,mal_plain,fem_sws,2,toothbrush,airplane,bread,bread,toothbrush,airplane,mal_plain_fem_sws,critical,2/1/2017,10:34,right,true,3350,2,2_1_1_0,word_3_word_1_word_2,different,airplane,English_Speech,preschool,katy,,,,,,,,,male
AQUYH,13,13,mal_plain,fem_sws,3,toothbrush,airplane,bread,bread,toothbrush,airplane,mal_plain_fem_sws,critical,2/1/2017,10:34,top_img,true,836,2,2_1_1_0,word_3_word_1_word_2,different,bread,English_Speech,preschool,katy,,,,,,,,,male
AQUYH,14,5,mal_plain,fem_sws,1,mouth,car,orange,car,mouth,orange,mal_plain_fem_sws,critical,2/1/2017,10:34,left,true,2462,1,2_1_1_0,word_2_word_3_word_1,different,mouth,English_Speech,preschool,katy,,,,,,,,,male
AQUYH,14,5,mal_plain,fem_sws,2,mouth,car,orange,car,mouth,orange,mal_plain_fem_sws,critical,2/1/2017,10:34,top_img,true,2356,2,2_1_1_0,word_2_word_3_word_1,different,car,English_Speech,preschool,katy,,,,,,,,,male
AQUYH,14,5,mal_plain,fem_sws,3,mouth,car,orange,car,mouth,orange,mal_plain_fem_sws,critical,2/1/2017,10:34,right,true,1333,1,2_1_1_0,word_2_word_3_word_1,different,orange,English_Speech,preschool,katy,,,,,,,,,male
AQUYH,15,23,mal_plain,fem_sws,1,teddy_bear,bath,table,teddy_bear,table,bath,mal_plain_fem_sws,critical,2/1/2017,10:34,right,false,4561,1,2_1_1_0,word_2_word_3_word_1,different,bath,English_Speech,preschool,katy,,,,,,,,,male
AQUYH,15,23,mal_plain,fem_sws,2,teddy_bear,bath,table,teddy_bear,table,bath,mal_plain_fem_sws,critical,2/1/2017,10:34,right,true,2466,1,2_1_1_0,word_2_word_3_word_1,different,bath,English_Speech,preschool,katy,,,,,,,,,male
AQUYH,15,23,mal_plain,fem_sws,3,teddy_bear,bath,table,teddy_bear,table,bath,mal_plain_fem_sws,critical,2/1/2017,10:34,top_img,false,490,1,2_1_1_0,word_2_word_3_word_1,different,teddy_bear,English_Speech,preschool,katy,,,,,,,,,male
AQUYH,16,15,mal_plain,fem_sws,1,beans,pencil,pencil,pencil,slide,beans,mal_plain_fem_sws,critical,2/1/2017,10:34,right,true,2197,2,2_1_1_1,word_2_word_1_word_3,near,beans,English_Speech,preschool,katy,,,,,,,,,male
AQUYH,16,15,mal_plain,fem_sws,2,beans,pencil,pencil,pencil,slide,beans,mal_plain_fem_sws,critical,2/1/2017,10:34,top_img,true,1954,2,2_1_1_1,word_2_word_1_word_3,near,pencil,English_Speech,preschool,katy,,,,,,,,,male
AQUYH,16,15,mal_plain,fem_sws,3,beans,pencil,pencil,pencil,slide,beans,mal_plain_fem_sws,critical,2/1/2017,10:34,left,false,1570,1,2_1_1_1,word_2_word_1_word_3,near,slide,English_Speech,preschool,katy,,,,,,,,,male
AQUYH,17,17,mal_plain,fem_sws,1,ambulance,hand,cake,hand,cake,ambulance,mal_plain_fem_sws,critical,2/1/2017,10:34,right,true,784,2,1_2_2_0,word_3_word_1_word_2,different,ambulance,English_Speech,preschool,katy,,,,,,,,,male
AQUYH,17,17,mal_plain,fem_sws,2,ambulance,hand,cake,hand,cake,ambulance,mal_plain_fem_sws,critical,2/1/2017,10:34,top_img,true,2611,2,1_2_2_0,word_3_word_1_word_2,different,hand,English_Speech,preschool,katy,,,,,,,,,male
AQUYH,17,17,mal_plain,fem_sws,3,ambulance,hand,cake,hand,cake,ambulance,mal_plain_fem_sws,critical,2/1/2017,10:34,left,true,1694,1,1_2_2_0,word_3_word_1_word_2,different,cake,English_Speech,preschool,katy,,,,,,,,,male
AQUYH,18,12,mal_plain,fem_sws,1,gloves,yoghurt,foot,foot,gloves,yoghurt,mal_plain_fem_sws,critical,2/1/2017,10:34,left,true,2636,2,2_1_1_0,word_1_word_3_word_2,different,gloves,English_Speech,preschool,katy,,,,,,,,,male
AQUYH,18,12,mal_plain,fem_sws,2,gloves,yoghurt,foot,foot,gloves,yoghurt,mal_plain_fem_sws,critical,2/1/2017,10:34,right,true,2029,1,2_1_1_0,word_1_word_3_word_2,different,yoghurt,English_Speech,preschool,katy,,,,,,,,,male
AQUYH,18,12,mal_plain,fem_sws,3,gloves,yoghurt,foot,foot,gloves,yoghurt,mal_plain_fem_sws,critical,2/1/2017,10:34,top_img,true,2003,1,2_1_1_0,word_1_word_3_word_2,different,foot,English_Speech,preschool,katy,,,,,,,,,male
AQUYH,19,1,mal_plain,fem_sws,1,spoon,baby,spoon,train,baby,spoon,mal_plain_fem_sws,critical,2/1/2017,10:34,right,true,4142,1,1_2_1_1,word_3_word_2_word_1,far,spoon,English_Speech,preschool,katy,,,,,,,,,male
AQUYH,19,1,mal_plain,fem_sws,2,spoon,baby,spoon,train,baby,spoon,mal_plain_fem_sws,critical,2/1/2017,10:34,left,true,2286,1,1_2_1_1,word_3_word_2_word_1,far,baby,English_Speech,preschool,katy,,,,,,,,,male
AQUYH,19,1,mal_plain,fem_sws,3,spoon,baby,spoon,train,baby,spoon,mal_plain_fem_sws,critical,2/1/2017,10:34,top_img,false,3565,2,1_2_1_1,word_3_word_2_word_1,far,train,English_Speech,preschool,katy,,,,,,,,,male
AQUYH,20,4,mal_plain,fem_sws,1,coat,strawberry,flower,strawberry,flower,coat,mal_plain_fem_sws,critical,2/1/2017,10:34,right,true,2471,2,1_2_2_0,word_2_word_3_word_1,different,coat,English_Speech,preschool,katy,,,,,,,,,male
AQUYH,20,4,mal_plain,fem_sws,2,coat,strawberry,flower,strawberry,flower,coat,mal_plain_fem_sws,critical,2/1/2017,10:34,top_img,true,2175,1,1_2_2_0,word_2_word_3_word_1,different,strawberry,English_Speech,preschool,katy,,,,,,,,,male
AQUYH,20,4,mal_plain,fem_sws,3,coat,strawberry,flower,strawberry,flower,coat,mal_plain_fem_sws,critical,2/1/2017,10:34,left,true,1312,1,1_2_2_0,word_2_word_3_word_1,different,flower,English_Speech,preschool,katy,,,,,,,,,male
AQUYH,21,22,mal_plain,fem_sws,1,bike,dog,bike,doctor,dog,bike,mal_plain_fem_sws,critical,2/1/2017,10:34,right,true,2041,2,1_2_1_1,word_3_word_2_word_1,far,bike,English_Speech,preschool,katy,,,,,,,,,male
AQUYH,21,22,mal_plain,fem_sws,2,bike,dog,bike,doctor,dog,bike,mal_plain_fem_sws,critical,2/1/2017,10:34,left,true,2067,1,1_2_1_1,word_3_word_2_word_1,far,dog,English_Speech,preschool,katy,,,,,,,,,male
AQUYH,21,22,mal_plain,fem_sws,3,bike,dog,bike,doctor,dog,bike,mal_plain_fem_sws,critical,2/1/2017,10:34,top_img,false,5019,3,1_2_1_1,word_3_word_2_word_1,far,doctor,English_Speech,preschool,katy,,,,,,,,,male
AQUYH,22,3,mal_plain,fem_sws,1,nose,trousers,trousers,telephone,trousers,nose,mal_plain_fem_sws,critical,2/1/2017,10:34,right,true,3005,1,1_2_2_1,word_3_word_1_word_2,near,nose,English_Speech,preschool,katy,,,,,,,,,male
AQUYH,22,3,mal_plain,fem_sws,2,nose,trousers,trousers,telephone,trousers,nose,mal_plain_fem_sws,critical,2/1/2017,10:34,top_img,false,2912,2,1_2_2_1,word_3_word_1_word_2,near,telephone,English_Speech,preschool,katy,,,,,,,,,male
AQUYH,22,3,mal_plain,fem_sws,3,nose,trousers,trousers,telephone,trousers,nose,mal_plain_fem_sws,critical,2/1/2017,10:34,left,true,1218,1,1_2_2_1,word_3_word_1_word_2,near,trousers,English_Speech,preschool,katy,,,,,,,,,male
AQUYH,23,14,mal_plain,fem_sws,1,door,cheese,cheese,cheese,door,shoes,mal_plain_fem_sws,critical,2/1/2017,10:34,top_img,false,2344,2,2_1_1_1,word_1_word_3_word_2,near,cheese,English_Speech,preschool,katy,,,,,,,,,male
AQUYH,23,14,mal_plain,fem_sws,2,door,cheese,cheese,cheese,door,shoes,mal_plain_fem_sws,critical,2/1/2017,10:34,left,false,902,1,2_1_1_1,word_1_word_3_word_2,near,door,English_Speech,preschool,katy,,,,,,,,,male
AQUYH,23,14,mal_plain,fem_sws,3,door,cheese,cheese,cheese,door,shoes,mal_plain_fem_sws,critical,2/1/2017,10:34,top_img,true,105,2,2_1_1_1,word_1_word_3_word_2,near,cheese,English_Speech,preschool,katy,,,,,,,,,male
AQUYH,24,16,mal_plain,fem_sws,1,paintbrush,banana,chair,banana,paintbrush,chair,mal_plain_fem_sws,critical,2/1/2017,10:34,left,true,2678,2,2_1_2_0,word_2_word_1_word_3,different,paintbrush,English_Speech,preschool,katy,,,,,,,,,male
AQUYH,24,16,mal_plain,fem_sws,2,paintbrush,banana,chair,banana,paintbrush,chair,mal_plain_fem_sws,critical,2/1/2017,10:34,top_img,true,3482,2,2_1_2_0,word_2_word_1_word_3,different,banana,English_Speech,preschool,katy,,,,,,,,,male
AQUYH,24,16,mal_plain,fem_sws,3,paintbrush,banana,chair,banana,paintbrush,chair,mal_plain_fem_sws,critical,2/1/2017,10:34,right,true,3731,2,2_1_2_0,word_2_word_1_word_3,different,chair,English_Speech,preschool,katy,,,,,,,,,male
AQUYH,25,6,mal_plain,fem_sws,1,peas,carrot,peas,peas,carrot,bird,mal_plain_fem_sws,critical,2/1/2017,10:34,top_img,true,3674,1,1_2_1_1,word_2_word_3_word_1,far,peas,English_Speech,preschool,katy,,,,,,,,,male
AQUYH,25,6,mal_plain,fem_sws,2,peas,carrot,peas,peas,carrot,bird,mal_plain_fem_sws,critical,2/1/2017,10:34,left,true,4029,1,1_2_1_1,word_2_word_3_word_1,far,carrot,English_Speech,preschool,katy,,,,,,,,,male
AQUYH,25,6,mal_plain,fem_sws,3,peas,carrot,peas,peas,carrot,bird,mal_plain_fem_sws,critical,2/1/2017,10:34,right,false,3070,1,1_2_1_1,word_2_word_3_word_1,far,bird,English_Speech,preschool,katy,,,,,,,,,male
