subject_id,trial_number,trial_id,plain,sws,instruction_number,sound1_item,sound2_item,sound3_item,top_image,left_image,right_image,sound_gender,trial_type,date_stamp,time_stamp,side_chosen,accuracy,rt,play_counter,order,pic_position,distance,chosen_pic,test_lang,testing_loc,tester,date_of_birth,ethnicity,native_lang,other_langs,parental_occ,dev_info,birth_order,num_siblings,gender
AuyDi,1,0,fem_plain,fem_sws,1,fireman,glasses,tractor,tractor,glasses,fireman,fem_plain_fem_sws,training,2/1/2017,10:35,right,true,2995,2,2_1_1_0,word_3_word_2_word_1,different,fireman,English_Speech,preschool,megan,,,,,,,,,female
AuyDi,1,0,fem_plain,fem_sws,2,fireman,glasses,tractor,tractor,glasses,fireman,fem_plain_fem_sws,training,2/1/2017,10:35,left,true,2495,2,2_1_1_0,word_3_word_2_word_1,different,glasses,English_Speech,preschool,megan,,,,,,,,,female
AuyDi,1,0,fem_plain,fem_sws,3,fireman,glasses,tractor,tractor,glasses,fireman,fem_plain_fem_sws,training,2/1/2017,10:35,top_img,true,5233,2,2_1_1_0,word_3_word_2_word_1,different,tractor,English_Speech,preschool,megan,,,,,,,,,female
AuyDi,2,15,fem_plain,fem_sws,1,beans,slide,beans,pencil,beans,slide,fem_plain_fem_sws,critical,2/1/2017,10:35,left,true,2309,2,2_1_2_1,word_2_word_3_word_1,far,beans,English_Speech,preschool,megan,,,,,,,,,female
AuyDi,2,15,fem_plain,fem_sws,2,beans,slide,beans,pencil,beans,slide,fem_plain_fem_sws,critical,2/1/2017,10:35,right,true,2861,2,2_1_2_1,word_2_word_3_word_1,far,slide,English_Speech,preschool,megan,,,,,,,,,female
AuyDi,2,15,fem_plain,fem_sws,3,beans,slide,beans,pencil,beans,slide,fem_plain_fem_sws,critical,2/1/2017,10:35,left,true,3563,4,2_1_2_1,word_2_word_3_word_1,far,beans,English_Speech,preschool,megan,,,,,,,,,female
AuyDi,3,12,fem_plain,fem_sws,1,yoghurt,foot,yoghurt,yoghurt,foot,gloves,fem_plain_fem_sws,critical,2/1/2017,10:35,top_img,true,2808,2,2_1_2_1,word_2_word_1_word_3,far,yoghurt,English_Speech,preschool,megan,,,,,,,,,female
AuyDi,3,12,fem_plain,fem_sws,2,yoghurt,foot,yoghurt,yoghurt,foot,gloves,fem_plain_fem_sws,critical,2/1/2017,10:35,left,true,2250,1,2_1_2_1,word_2_word_1_word_3,far,foot,English_Speech,preschool,megan,,,,,,,,,female
AuyDi,3,12,fem_plain,fem_sws,3,yoghurt,foot,yoghurt,yoghurt,foot,gloves,fem_plain_fem_sws,critical,2/1/2017,10:35,top_img,true,3113,4,2_1_2_1,word_2_word_1_word_3,far,yoghurt,English_Speech,preschool,megan,,,,,,,,,female
AuyDi,4,10,fem_plain,fem_sws,1,pig,tshirt,pig,hat,pig,tshirt,fem_plain_fem_sws,critical,2/1/2017,10:35,left,true,2531,2,1_2_1_1,word_3_word_1_word_2,far,pig,English_Speech,preschool,megan,,,,,,,,,female
AuyDi,4,10,fem_plain,fem_sws,2,pig,tshirt,pig,hat,pig,tshirt,fem_plain_fem_sws,critical,2/1/2017,10:35,right,true,3271,1,1_2_1_1,word_3_word_1_word_2,far,tshirt,English_Speech,preschool,megan,,,,,,,,,female
AuyDi,4,10,fem_plain,fem_sws,3,pig,tshirt,pig,hat,pig,tshirt,fem_plain_fem_sws,critical,2/1/2017,10:35,left,true,4581,4,1_2_1_1,word_3_word_1_word_2,far,pig,English_Speech,preschool,megan,,,,,,,,,female
AuyDi,5,3,fem_plain,fem_sws,1,nose,telephone,trousers,telephone,nose,trousers,fem_plain_fem_sws,critical,2/1/2017,10:35,left,true,2717,2,1_2_2_0,word_3_word_2_word_1,different,nose,English_Speech,preschool,megan,,,,,,,,,female
AuyDi,5,3,fem_plain,fem_sws,2,nose,telephone,trousers,telephone,nose,trousers,fem_plain_fem_sws,critical,2/1/2017,10:35,top_img,true,3390,1,1_2_2_0,word_3_word_2_word_1,different,telephone,English_Speech,preschool,megan,,,,,,,,,female
AuyDi,5,3,fem_plain,fem_sws,3,nose,telephone,trousers,telephone,nose,trousers,fem_plain_fem_sws,critical,2/1/2017,10:35,right,true,4933,2,1_2_2_0,word_3_word_2_word_1,different,trousers,English_Speech,preschool,megan,,,,,,,,,female
AuyDi,6,5,fem_plain,fem_sws,1,car,mouth,car,mouth,car,orange,fem_plain_fem_sws,critical,2/1/2017,10:35,left,true,2957,2,1_2_1_1,word_3_word_2_word_1,far,car,English_Speech,preschool,megan,,,,,,,,,female
AuyDi,6,5,fem_plain,fem_sws,2,car,mouth,car,mouth,car,orange,fem_plain_fem_sws,critical,2/1/2017,10:35,top_img,true,2935,3,1_2_1_1,word_3_word_2_word_1,far,mouth,English_Speech,preschool,megan,,,,,,,,,female
AuyDi,6,5,fem_plain,fem_sws,3,car,mouth,car,mouth,car,orange,fem_plain_fem_sws,critical,2/1/2017,10:35,left,true,3903,4,1_2_1_1,word_3_word_2_word_1,far,car,English_Speech,preschool,megan,,,,,,,,,female
AuyDi,7,16,fem_plain,fem_sws,1,paintbrush,chair,banana,banana,chair,paintbrush,fem_plain_fem_sws,critical,2/1/2017,10:35,right,true,3128,2,2_1_1_0,word_2_word_3_word_1,different,paintbrush,English_Speech,preschool,megan,,,,,,,,,female
AuyDi,7,16,fem_plain,fem_sws,2,paintbrush,chair,banana,banana,chair,paintbrush,fem_plain_fem_sws,critical,2/1/2017,10:35,left,true,2708,1,2_1_1_0,word_2_word_3_word_1,different,chair,English_Speech,preschool,megan,,,,,,,,,female
AuyDi,7,16,fem_plain,fem_sws,3,paintbrush,chair,banana,banana,chair,paintbrush,fem_plain_fem_sws,critical,2/1/2017,10:35,left,false,3593,1,2_1_1_0,word_2_word_3_word_1,different,chair,English_Speech,preschool,megan,,,,,,,,,female
AuyDi,8,21,fem_plain,fem_sws,1,sheep,eye,frog,sheep,frog,eye,fem_plain_fem_sws,critical,2/1/2017,10:35,top_img,true,2527,2,2_1_2_0,word_2_word_1_word_3,different,sheep,English_Speech,preschool,megan,,,,,,,,,female
AuyDi,8,21,fem_plain,fem_sws,2,sheep,eye,frog,sheep,frog,eye,fem_plain_fem_sws,critical,2/1/2017,10:35,right,true,2868,1,2_1_2_0,word_2_word_1_word_3,different,eye,English_Speech,preschool,megan,,,,,,,,,female
AuyDi,8,21,fem_plain,fem_sws,3,sheep,eye,frog,sheep,frog,eye,fem_plain_fem_sws,critical,2/1/2017,10:35,left,true,4270,2,2_1_2_0,word_2_word_1_word_3,different,frog,English_Speech,preschool,megan,,,,,,,,,female
AuyDi,9,9,fem_plain,fem_sws,1,grapes,pizza,window,grapes,window,pizza,fem_plain_fem_sws,critical,2/1/2017,10:35,top_img,true,1927,2,2_1_1_0,word_3_word_2_word_1,different,grapes,English_Speech,preschool,megan,,,,,,,,,female
AuyDi,9,9,fem_plain,fem_sws,2,grapes,pizza,window,grapes,window,pizza,fem_plain_fem_sws,critical,2/1/2017,10:35,right,true,2556,2,2_1_1_0,word_3_word_2_word_1,different,pizza,English_Speech,preschool,megan,,,,,,,,,female
AuyDi,9,9,fem_plain,fem_sws,3,grapes,pizza,window,grapes,window,pizza,fem_plain_fem_sws,critical,2/1/2017,10:35,left,true,4196,4,2_1_1_0,word_3_word_2_word_1,different,window,English_Speech,preschool,megan,,,,,,,,,female
AuyDi,10,19,fem_plain,fem_sws,1,tree,building_blocks,santa,santa,tree,building_blocks,fem_plain_fem_sws,critical,2/1/2017,10:35,left,true,2657,2,2_1_2_0,word_1_word_3_word_2,different,tree,English_Speech,preschool,megan,,,,,,,,,female
AuyDi,10,19,fem_plain,fem_sws,2,tree,building_blocks,santa,santa,tree,building_blocks,fem_plain_fem_sws,critical,2/1/2017,10:35,right,true,2328,2,2_1_2_0,word_1_word_3_word_2,different,building_blocks,English_Speech,preschool,megan,,,,,,,,,female
AuyDi,10,19,fem_plain,fem_sws,3,tree,building_blocks,santa,santa,tree,building_blocks,fem_plain_fem_sws,critical,2/1/2017,10:35,top_img,true,3847,2,2_1_2_0,word_1_word_3_word_2,different,santa,English_Speech,preschool,megan,,,,,,,,,female
AuyDi,11,24,fem_plain,fem_sws,1,socks,sink,socks,socks,sink,fish,fem_plain_fem_sws,critical,2/1/2017,10:35,top_img,true,3094,2,2_1_2_1,word_3_word_1_word_2,far,socks,English_Speech,preschool,megan,,,,,,,,,female
AuyDi,11,24,fem_plain,fem_sws,2,socks,sink,socks,socks,sink,fish,fem_plain_fem_sws,critical,2/1/2017,10:35,left,true,5005,2,2_1_2_1,word_3_word_1_word_2,far,sink,English_Speech,preschool,megan,,,,,,,,,female
AuyDi,11,24,fem_plain,fem_sws,3,socks,sink,socks,socks,sink,fish,fem_plain_fem_sws,critical,2/1/2017,10:35,right,false,2238,2,2_1_2_1,word_3_word_1_word_2,far,fish,English_Speech,preschool,megan,,,,,,,,,female
AuyDi,12,1,fem_plain,fem_sws,1,spoon,train,train,spoon,train,baby,fem_plain_fem_sws,critical,2/1/2017,10:35,top_img,true,2629,1,1_2_2_1,word_1_word_3_word_2,near,spoon,English_Speech,preschool,megan,,,,,,,,,female
AuyDi,12,1,fem_plain,fem_sws,2,spoon,train,train,spoon,train,baby,fem_plain_fem_sws,critical,2/1/2017,10:35,left,true,449,3,1_2_2_1,word_1_word_3_word_2,near,train,English_Speech,preschool,megan,,,,,,,,,female
AuyDi,12,1,fem_plain,fem_sws,3,spoon,train,train,spoon,train,baby,fem_plain_fem_sws,critical,2/1/2017,10:35,right,false,3210,2,1_2_2_1,word_1_word_3_word_2,near,baby,English_Speech,preschool,megan,,,,,,,,,female
AuyDi,13,4,fem_plain,fem_sws,1,strawberry,coat,coat,strawberry,flower,coat,fem_plain_fem_sws,critical,2/1/2017,10:35,top_img,true,2460,2,2_1_1_1,word_2_word_3_word_1,near,strawberry,English_Speech,preschool,megan,,,,,,,,,female
AuyDi,13,4,fem_plain,fem_sws,2,strawberry,coat,coat,strawberry,flower,coat,fem_plain_fem_sws,critical,2/1/2017,10:35,right,true,2274,2,2_1_1_1,word_2_word_3_word_1,near,coat,English_Speech,preschool,megan,,,,,,,,,female
AuyDi,13,4,fem_plain,fem_sws,3,strawberry,coat,coat,strawberry,flower,coat,fem_plain_fem_sws,critical,2/1/2017,10:35,left,false,2095,2,2_1_1_1,word_2_word_3_word_1,near,flower,English_Speech,preschool,megan,,,,,,,,,female
AuyDi,14,17,fem_plain,fem_sws,1,hand,cake,cake,ambulance,cake,hand,fem_plain_fem_sws,critical,2/1/2017,10:35,right,true,3616,2,2_1_1_1,word_2_word_1_word_3,near,hand,English_Speech,preschool,megan,,,,,,,,,female
AuyDi,14,17,fem_plain,fem_sws,2,hand,cake,cake,ambulance,cake,hand,fem_plain_fem_sws,critical,2/1/2017,10:35,left,true,2511,2,2_1_1_1,word_2_word_1_word_3,near,cake,English_Speech,preschool,megan,,,,,,,,,female
AuyDi,14,17,fem_plain,fem_sws,3,hand,cake,cake,ambulance,cake,hand,fem_plain_fem_sws,critical,2/1/2017,10:35,top_img,false,3395,1,2_1_1_1,word_2_word_1_word_3,near,ambulance,English_Speech,preschool,megan,,,,,,,,,female
AuyDi,15,20,fem_plain,fem_sws,1,apple,rabbit,rabbit,rabbit,jumper,apple,fem_plain_fem_sws,critical,2/1/2017,10:35,right,true,2580,1,1_2_2_1,word_2_word_1_word_3,near,apple,English_Speech,preschool,megan,,,,,,,,,female
AuyDi,15,20,fem_plain,fem_sws,2,apple,rabbit,rabbit,rabbit,jumper,apple,fem_plain_fem_sws,critical,2/1/2017,10:35,top_img,true,2629,1,1_2_2_1,word_2_word_1_word_3,near,rabbit,English_Speech,preschool,megan,,,,,,,,,female
AuyDi,15,20,fem_plain,fem_sws,3,apple,rabbit,rabbit,rabbit,jumper,apple,fem_plain_fem_sws,critical,2/1/2017,10:35,left,false,1839,2,1_2_2_1,word_2_word_1_word_3,near,jumper,English_Speech,preschool,megan,,,,,,,,,female
AuyDi,16,7,fem_plain,fem_sws,1,horse,lolly,horse,lolly,horse,cat,fem_plain_fem_sws,critical,2/1/2017,10:35,left,true,2509,2,1_2_1_1,word_1_word_2_word_3,far,horse,English_Speech,preschool,megan,,,,,,,,,female
AuyDi,16,7,fem_plain,fem_sws,2,horse,lolly,horse,lolly,horse,cat,fem_plain_fem_sws,critical,2/1/2017,10:35,top_img,true,3077,2,1_2_1_1,word_1_word_2_word_3,far,lolly,English_Speech,preschool,megan,,,,,,,,,female
AuyDi,16,7,fem_plain,fem_sws,3,horse,lolly,horse,lolly,horse,cat,fem_plain_fem_sws,critical,2/1/2017,10:35,right,false,3267,2,1_2_1_1,word_1_word_2_word_3,far,cat,English_Speech,preschool,megan,,,,,,,,,female
AuyDi,17,11,fem_plain,fem_sws,1,cow,book,lorry,lorry,cow,book,fem_plain_fem_sws,critical,2/1/2017,10:35,right,false,5868,2,2_1_1_0,word_2_word_3_word_1,different,book,English_Speech,preschool,megan,,,,,,,,,female
AuyDi,17,11,fem_plain,fem_sws,2,cow,book,lorry,lorry,cow,book,fem_plain_fem_sws,critical,2/1/2017,10:35,right,true,7095,2,2_1_1_0,word_2_word_3_word_1,different,book,English_Speech,preschool,megan,,,,,,,,,female
AuyDi,17,11,fem_plain,fem_sws,3,cow,book,lorry,lorry,cow,book,fem_plain_fem_sws,critical,2/1/2017,10:35,top_img,true,3598,4,2_1_1_0,word_2_word_3_word_1,different,lorry,English_Speech,preschool,megan,,,,,,,,,female
AuyDi,18,13,fem_plain,fem_sws,1,bread,toothbrush,toothbrush,airplane,bread,toothbrush,fem_plain_fem_sws,critical,2/1/2017,10:35,left,true,3560,2,2_1_1_1,word_2_word_3_word_1,near,bread,English_Speech,preschool,megan,,,,,,,,,female
AuyDi,18,13,fem_plain,fem_sws,2,bread,toothbrush,toothbrush,airplane,bread,toothbrush,fem_plain_fem_sws,critical,2/1/2017,10:35,right,true,1887,2,2_1_1_1,word_2_word_3_word_1,near,toothbrush,English_Speech,preschool,megan,,,,,,,,,female
AuyDi,18,13,fem_plain,fem_sws,3,bread,toothbrush,toothbrush,airplane,bread,toothbrush,fem_plain_fem_sws,critical,2/1/2017,10:35,top_img,false,4900,6,2_1_1_1,word_2_word_3_word_1,near,airplane,English_Speech,preschool,megan,,,,,,,,,female
AuyDi,19,2,fem_plain,fem_sws,1,fork,chicken,bed,fork,bed,chicken,fem_plain_fem_sws,critical,2/1/2017,10:35,top_img,true,3431,4,1_2_2_0,word_3_word_1_word_2,different,fork,English_Speech,preschool,megan,,,,,,,,,female
AuyDi,19,2,fem_plain,fem_sws,2,fork,chicken,bed,fork,bed,chicken,fem_plain_fem_sws,critical,2/1/2017,10:35,right,true,3116,1,1_2_2_0,word_3_word_1_word_2,different,chicken,English_Speech,preschool,megan,,,,,,,,,female
AuyDi,19,2,fem_plain,fem_sws,3,fork,chicken,bed,fork,bed,chicken,fem_plain_fem_sws,critical,2/1/2017,10:35,right,false,9914,4,1_2_2_0,word_3_word_1_word_2,different,chicken,English_Speech,preschool,megan,,,,,,,,,female
AuyDi,20,18,fem_plain,fem_sws,1,ball,raspberry,camera,raspberry,ball,camera,fem_plain_fem_sws,critical,2/1/2017,10:35,top_img,false,105,3,1_2_2_0,word_2_word_1_word_3,different,raspberry,English_Speech,preschool,megan,,,,,,,,,female
AuyDi,20,18,fem_plain,fem_sws,2,ball,raspberry,camera,raspberry,ball,camera,fem_plain_fem_sws,critical,2/1/2017,10:35,left,false,1457,2,1_2_2_0,word_2_word_1_word_3,different,ball,English_Speech,preschool,megan,,,,,,,,,female
AuyDi,20,18,fem_plain,fem_sws,3,ball,raspberry,camera,raspberry,ball,camera,fem_plain_fem_sws,critical,2/1/2017,10:35,top_img,false,409,1,1_2_2_0,word_2_word_1_word_3,different,raspberry,English_Speech,preschool,megan,,,,,,,,,female
AuyDi,21,22,fem_plain,fem_sws,1,dog,bike,doctor,doctor,bike,dog,fem_plain_fem_sws,critical,2/1/2017,10:35,top_img,false,2680,2,2_1_1_0,word_3_word_1_word_2,different,doctor,English_Speech,preschool,megan,,,,,,,,,female
AuyDi,21,22,fem_plain,fem_sws,2,dog,bike,doctor,doctor,bike,dog,fem_plain_fem_sws,critical,2/1/2017,10:35,left,true,2346,3,2_1_1_0,word_3_word_1_word_2,different,bike,English_Speech,preschool,megan,,,,,,,,,female
AuyDi,21,22,fem_plain,fem_sws,3,dog,bike,doctor,doctor,bike,dog,fem_plain_fem_sws,critical,2/1/2017,10:35,right,false,2722,2,2_1_1_0,word_3_word_1_word_2,different,dog,English_Speech,preschool,megan,,,,,,,,,female
AuyDi,22,6,fem_plain,fem_sws,1,peas,bird,bird,peas,bird,carrot,fem_plain_fem_sws,critical,2/1/2017,10:35,top_img,true,2576,2,1_2_2_1,word_2_word_1_word_3,near,peas,English_Speech,preschool,megan,,,,,,,,,female
AuyDi,22,6,fem_plain,fem_sws,2,peas,bird,bird,peas,bird,carrot,fem_plain_fem_sws,critical,2/1/2017,10:35,left,true,2481,1,1_2_2_1,word_2_word_1_word_3,near,bird,English_Speech,preschool,megan,,,,,,,,,female
AuyDi,22,6,fem_plain,fem_sws,3,peas,bird,bird,peas,bird,carrot,fem_plain_fem_sws,critical,2/1/2017,10:35,right,false,2661,2,1_2_2_1,word_2_word_1_word_3,near,carrot,English_Speech,preschool,megan,,,,,,,,,female
AuyDi,23,14,fem_plain,fem_sws,1,shoes,door,cheese,door,cheese,shoes,fem_plain_fem_sws,critical,2/1/2017,10:35,right,true,2746,2,2_1_2_0,word_3_word_1_word_2,different,shoes,English_Speech,preschool,megan,,,,,,,,,female
AuyDi,23,14,fem_plain,fem_sws,2,shoes,door,cheese,door,cheese,shoes,fem_plain_fem_sws,critical,2/1/2017,10:35,top_img,true,2275,2,2_1_2_0,word_3_word_1_word_2,different,door,English_Speech,preschool,megan,,,,,,,,,female
AuyDi,23,14,fem_plain,fem_sws,3,shoes,door,cheese,door,cheese,shoes,fem_plain_fem_sws,critical,2/1/2017,10:35,left,true,2462,2,2_1_2_0,word_3_word_1_word_2,different,cheese,English_Speech,preschool,megan,,,,,,,,,female
AuyDi,24,8,fem_plain,fem_sws,1,fire_engine,ear,wellyboots,wellyboots,ear,fire_engine,fem_plain_fem_sws,critical,2/1/2017,10:35,right,true,3214,2,2_1_1_0,word_1_word_3_word_2,different,fire_engine,English_Speech,preschool,megan,,,,,,,,,female
AuyDi,24,8,fem_plain,fem_sws,2,fire_engine,ear,wellyboots,wellyboots,ear,fire_engine,fem_plain_fem_sws,critical,2/1/2017,10:35,left,true,2668,2,2_1_1_0,word_1_word_3_word_2,different,ear,English_Speech,preschool,megan,,,,,,,,,female
AuyDi,24,8,fem_plain,fem_sws,3,fire_engine,ear,wellyboots,wellyboots,ear,fire_engine,fem_plain_fem_sws,critical,2/1/2017,10:35,top_img,true,2748,2,2_1_1_0,word_1_word_3_word_2,different,wellyboots,English_Speech,preschool,megan,,,,,,,,,female
AuyDi,25,23,fem_plain,fem_sws,1,bath,teddy_bear,bath,bath,teddy_bear,table,fem_plain_fem_sws,critical,2/1/2017,10:35,top_img,true,3043,2,1_2_1_1,word_1_word_2_word_3,far,bath,English_Speech,preschool,megan,,,,,,,,,female
AuyDi,25,23,fem_plain,fem_sws,2,bath,teddy_bear,bath,bath,teddy_bear,table,fem_plain_fem_sws,critical,2/1/2017,10:35,left,true,3227,2,1_2_1_1,word_1_word_2_word_3,far,teddy_bear,English_Speech,preschool,megan,,,,,,,,,female
AuyDi,25,23,fem_plain,fem_sws,3,bath,teddy_bear,bath,bath,teddy_bear,table,fem_plain_fem_sws,critical,2/1/2017,10:35,right,false,930,4,1_2_1_1,word_1_word_2_word_3,far,table,English_Speech,preschool,megan,,,,,,,,,female
