subject_id,trial_number,trial_id,plain,sws,instruction_number,sound1_item,sound2_item,sound3_item,top_image,left_image,right_image,sound_gender,trial_type,date_stamp,time_stamp,side_chosen,accuracy,rt,play_counter,order,pic_position,distance,chosen_pic,test_lang,testing_loc,tester,date_of_birth,ethnicity,native_lang,other_langs,parental_occ,dev_info,birth_order,num_siblings,gender
bYMXQ,1,0,fem_plain,mal_sws,1,tractor,fireman,glasses,fireman,tractor,glasses,fem_plain_mal_sws,training,1/11/2017,9:30,right,false,97,2,1_2_2_0,word_1_word_3_word_2,different,glasses,English_Speech,preschool,katy,,,,,,,,,male
bYMXQ,1,0,fem_plain,mal_sws,2,tractor,fireman,glasses,fireman,tractor,glasses,fem_plain_mal_sws,training,1/11/2017,9:30,top_img,true,12381,2,1_2_2_0,word_1_word_3_word_2,different,fireman,English_Speech,preschool,katy,,,,,,,,,male
bYMXQ,1,0,fem_plain,mal_sws,3,tractor,fireman,glasses,fireman,tractor,glasses,fem_plain_mal_sws,training,1/11/2017,9:30,left,false,6040,2,1_2_2_0,word_1_word_3_word_2,different,tractor,English_Speech,preschool,katy,,,,,,,,,male
bYMXQ,2,4,fem_plain,mal_sws,1,strawberry,coat,flower,coat,strawberry,flower,fem_plain_mal_sws,critical,1/11/2017,9:30,left,true,4614,2,2_1_1_0,word_1_word_2_word_3,different,strawberry,English_Speech,preschool,katy,,,,,,,,,male
bYMXQ,2,4,fem_plain,mal_sws,2,strawberry,coat,flower,coat,strawberry,flower,fem_plain_mal_sws,critical,1/11/2017,9:30,top_img,true,6979,1,2_1_1_0,word_1_word_2_word_3,different,coat,English_Speech,preschool,katy,,,,,,,,,male
bYMXQ,2,4,fem_plain,mal_sws,3,strawberry,coat,flower,coat,strawberry,flower,fem_plain_mal_sws,critical,1/11/2017,9:30,right,true,3812,2,2_1_1_0,word_1_word_2_word_3,different,flower,English_Speech,preschool,katy,,,,,,,,,male
bYMXQ,3,9,fem_plain,mal_sws,1,window,grapes,grapes,grapes,window,pizza,fem_plain_mal_sws,critical,1/11/2017,9:30,left,true,8255,6,1_2_2_1,word_3_word_2_word_1,near,window,English_Speech,preschool,katy,,,,,,,,,male
bYMXQ,3,9,fem_plain,mal_sws,2,window,grapes,grapes,grapes,window,pizza,fem_plain_mal_sws,critical,1/11/2017,9:30,top_img,true,4132,1,1_2_2_1,word_3_word_2_word_1,near,grapes,English_Speech,preschool,katy,,,,,,,,,male
bYMXQ,3,9,fem_plain,mal_sws,3,window,grapes,grapes,grapes,window,pizza,fem_plain_mal_sws,critical,1/11/2017,9:30,right,false,4786,2,1_2_2_1,word_3_word_2_word_1,near,pizza,English_Speech,preschool,katy,,,,,,,,,male
bYMXQ,4,23,fem_plain,mal_sws,1,bath,teddy_bear,table,bath,teddy_bear,table,fem_plain_mal_sws,critical,1/11/2017,9:30,top_img,true,3855,4,1_2_2_0,word_1_word_2_word_3,different,bath,English_Speech,preschool,katy,,,,,,,,,male
bYMXQ,4,23,fem_plain,mal_sws,2,bath,teddy_bear,table,bath,teddy_bear,table,fem_plain_mal_sws,critical,1/11/2017,9:30,left,true,3446,2,1_2_2_0,word_1_word_2_word_3,different,teddy_bear,English_Speech,preschool,katy,,,,,,,,,male
bYMXQ,4,23,fem_plain,mal_sws,3,bath,teddy_bear,table,bath,teddy_bear,table,fem_plain_mal_sws,critical,1/11/2017,9:30,right,true,5351,2,1_2_2_0,word_1_word_2_word_3,different,table,English_Speech,preschool,katy,,,,,,,,,male
bYMXQ,5,14,fem_plain,mal_sws,1,shoes,cheese,door,cheese,door,shoes,fem_plain_mal_sws,critical,1/11/2017,9:30,right,true,6874,1,1_2_2_0,word_1_word_3_word_2,different,shoes,English_Speech,preschool,katy,,,,,,,,,male
bYMXQ,5,14,fem_plain,mal_sws,2,shoes,cheese,door,cheese,door,shoes,fem_plain_mal_sws,critical,1/11/2017,9:30,top_img,true,3493,2,1_2_2_0,word_1_word_3_word_2,different,cheese,English_Speech,preschool,katy,,,,,,,,,male
bYMXQ,5,14,fem_plain,mal_sws,3,shoes,cheese,door,cheese,door,shoes,fem_plain_mal_sws,critical,1/11/2017,9:30,left,true,3423,2,1_2_2_0,word_1_word_3_word_2,different,door,English_Speech,preschool,katy,,,,,,,,,male
bYMXQ,6,3,fem_plain,mal_sws,1,nose,trousers,telephone,trousers,telephone,nose,fem_plain_mal_sws,critical,1/11/2017,9:30,right,true,11813,2,2_1_2_0,word_1_word_3_word_2,different,nose,English_Speech,preschool,katy,,,,,,,,,male
bYMXQ,6,3,fem_plain,mal_sws,2,nose,trousers,telephone,trousers,telephone,nose,fem_plain_mal_sws,critical,1/11/2017,9:30,top_img,true,6359,2,2_1_2_0,word_1_word_3_word_2,different,trousers,English_Speech,preschool,katy,,,,,,,,,male
bYMXQ,6,3,fem_plain,mal_sws,3,nose,trousers,telephone,trousers,telephone,nose,fem_plain_mal_sws,critical,1/11/2017,9:30,left,true,4647,1,2_1_2_0,word_1_word_3_word_2,different,telephone,English_Speech,preschool,katy,,,,,,,,,male
bYMXQ,7,7,fem_plain,mal_sws,1,horse,cat,horse,horse,lolly,cat,fem_plain_mal_sws,critical,1/11/2017,9:30,top_img,true,5302,2,1_2_1_1,word_2_word_1_word_3,far,horse,English_Speech,preschool,katy,,,,,,,,,male
bYMXQ,7,7,fem_plain,mal_sws,2,horse,cat,horse,horse,lolly,cat,fem_plain_mal_sws,critical,1/11/2017,9:30,left,false,3482,2,1_2_1_1,word_2_word_1_word_3,far,lolly,English_Speech,preschool,katy,,,,,,,,,male
bYMXQ,7,7,fem_plain,mal_sws,3,horse,cat,horse,horse,lolly,cat,fem_plain_mal_sws,critical,1/11/2017,9:30,right,false,420,2,1_2_1_1,word_2_word_1_word_3,far,cat,English_Speech,preschool,katy,,,,,,,,,male
bYMXQ,8,5,fem_plain,mal_sws,1,orange,mouth,orange,car,orange,mouth,fem_plain_mal_sws,critical,1/11/2017,9:30,top_img,false,8841,2,2_1_2_1,word_2_word_1_word_3,far,car,English_Speech,preschool,katy,,,,,,,,,male
bYMXQ,8,5,fem_plain,mal_sws,2,orange,mouth,orange,car,orange,mouth,fem_plain_mal_sws,critical,1/11/2017,9:30,right,true,2722,4,2_1_2_1,word_2_word_1_word_3,far,mouth,English_Speech,preschool,katy,,,,,,,,,male
bYMXQ,8,5,fem_plain,mal_sws,3,orange,mouth,orange,car,orange,mouth,fem_plain_mal_sws,critical,1/11/2017,9:30,left,true,3472,2,2_1_2_1,word_2_word_1_word_3,far,orange,English_Speech,preschool,katy,,,,,,,,,male
bYMXQ,9,1,fem_plain,mal_sws,1,train,spoon,baby,spoon,train,baby,fem_plain_mal_sws,critical,1/11/2017,9:30,left,true,3646,2,2_1_1_0,word_1_word_3_word_2,different,train,English_Speech,preschool,katy,,,,,,,,,male
bYMXQ,9,1,fem_plain,mal_sws,2,train,spoon,baby,spoon,train,baby,fem_plain_mal_sws,critical,1/11/2017,9:30,top_img,true,3855,4,2_1_1_0,word_1_word_3_word_2,different,spoon,English_Speech,preschool,katy,,,,,,,,,male
bYMXQ,9,1,fem_plain,mal_sws,3,train,spoon,baby,spoon,train,baby,fem_plain_mal_sws,critical,1/11/2017,9:30,right,true,2918,2,2_1_1_0,word_1_word_3_word_2,different,baby,English_Speech,preschool,katy,,,,,,,,,male
bYMXQ,10,10,fem_plain,mal_sws,1,pig,hat,pig,tshirt,pig,hat,fem_plain_mal_sws,critical,1/11/2017,9:30,left,true,3134,1,2_1_2_1,word_2_word_1_word_3,far,pig,English_Speech,preschool,katy,,,,,,,,,male
bYMXQ,10,10,fem_plain,mal_sws,2,pig,hat,pig,tshirt,pig,hat,fem_plain_mal_sws,critical,1/11/2017,9:30,right,true,11456,3,2_1_2_1,word_2_word_1_word_3,far,hat,English_Speech,preschool,katy,,,,,,,,,male
bYMXQ,10,10,fem_plain,mal_sws,3,pig,hat,pig,tshirt,pig,hat,fem_plain_mal_sws,critical,1/11/2017,9:30,top_img,false,4234,4,2_1_2_1,word_2_word_1_word_3,far,tshirt,English_Speech,preschool,katy,,,,,,,,,male
bYMXQ,11,17,fem_plain,mal_sws,1,hand,ambulance,cake,ambulance,cake,hand,fem_plain_mal_sws,critical,1/11/2017,9:30,right,true,6656,2,2_1_2_0,word_2_word_1_word_3,different,hand,English_Speech,preschool,katy,,,,,,,,,male
bYMXQ,11,17,fem_plain,mal_sws,2,hand,ambulance,cake,ambulance,cake,hand,fem_plain_mal_sws,critical,1/11/2017,9:30,top_img,true,9136,2,2_1_2_0,word_2_word_1_word_3,different,ambulance,English_Speech,preschool,katy,,,,,,,,,male
bYMXQ,11,17,fem_plain,mal_sws,3,hand,ambulance,cake,ambulance,cake,hand,fem_plain_mal_sws,critical,1/11/2017,9:30,left,true,2807,2,2_1_2_0,word_2_word_1_word_3,different,cake,English_Speech,preschool,katy,,,,,,,,,male
bYMXQ,12,24,fem_plain,mal_sws,1,socks,sink,fish,socks,fish,sink,fem_plain_mal_sws,critical,1/11/2017,9:30,top_img,true,6114,2,2_1_1_0,word_3_word_2_word_1,different,socks,English_Speech,preschool,katy,,,,,,,,,male
bYMXQ,12,24,fem_plain,mal_sws,2,socks,sink,fish,socks,fish,sink,fem_plain_mal_sws,critical,1/11/2017,9:30,left,false,3070,1,2_1_1_0,word_3_word_2_word_1,different,fish,English_Speech,preschool,katy,,,,,,,,,male
bYMXQ,12,24,fem_plain,mal_sws,3,socks,sink,fish,socks,fish,sink,fem_plain_mal_sws,critical,1/11/2017,9:30,right,false,4527,2,2_1_1_0,word_3_word_2_word_1,different,sink,English_Speech,preschool,katy,,,,,,,,,male
bYMXQ,13,2,fem_plain,mal_sws,1,chicken,bed,bed,chicken,fork,bed,fem_plain_mal_sws,critical,1/11/2017,9:30,top_img,true,3619,1,2_1_1_1,word_2_word_3_word_1,near,chicken,English_Speech,preschool,katy,,,,,,,,,male
bYMXQ,13,2,fem_plain,mal_sws,2,chicken,bed,bed,chicken,fork,bed,fem_plain_mal_sws,critical,1/11/2017,9:30,right,true,4832,1,2_1_1_1,word_2_word_3_word_1,near,bed,English_Speech,preschool,katy,,,,,,,,,male
bYMXQ,13,2,fem_plain,mal_sws,3,chicken,bed,bed,chicken,fork,bed,fem_plain_mal_sws,critical,1/11/2017,9:30,left,false,3231,1,2_1_1_1,word_2_word_3_word_1,near,fork,English_Speech,preschool,katy,,,,,,,,,male
bYMXQ,14,18,fem_plain,mal_sws,1,camera,raspberry,ball,raspberry,camera,ball,fem_plain_mal_sws,critical,1/11/2017,9:30,top_img,false,1391,2,2_1_1_0,word_2_word_3_word_1,different,raspberry,English_Speech,preschool,katy,,,,,,,,,male
bYMXQ,14,18,fem_plain,mal_sws,2,camera,raspberry,ball,raspberry,camera,ball,fem_plain_mal_sws,critical,1/11/2017,9:30,top_img,true,4741,2,2_1_1_0,word_2_word_3_word_1,different,raspberry,English_Speech,preschool,katy,,,,,,,,,male
bYMXQ,14,18,fem_plain,mal_sws,3,camera,raspberry,ball,raspberry,camera,ball,fem_plain_mal_sws,critical,1/11/2017,9:30,left,false,6155,1,2_1_1_0,word_2_word_3_word_1,different,camera,English_Speech,preschool,katy,,,,,,,,,male
bYMXQ,15,22,fem_plain,mal_sws,1,doctor,dog,dog,bike,doctor,dog,fem_plain_mal_sws,critical,1/11/2017,9:30,right,false,4609,2,1_2_2_1,word_1_word_3_word_2,near,dog,English_Speech,preschool,katy,,,,,,,,,male
bYMXQ,15,22,fem_plain,mal_sws,2,doctor,dog,dog,bike,doctor,dog,fem_plain_mal_sws,critical,1/11/2017,9:30,right,true,3062,2,1_2_2_1,word_1_word_3_word_2,near,dog,English_Speech,preschool,katy,,,,,,,,,male
bYMXQ,15,22,fem_plain,mal_sws,3,doctor,dog,dog,bike,doctor,dog,fem_plain_mal_sws,critical,1/11/2017,9:30,right,true,8521,1,1_2_2_1,word_1_word_3_word_2,near,dog,English_Speech,preschool,katy,,,,,,,,,male
bYMXQ,16,21,fem_plain,mal_sws,1,frog,sheep,eye,frog,eye,sheep,fem_plain_mal_sws,critical,1/11/2017,9:30,top_img,true,3999,2,2_1_1_0,word_1_word_3_word_2,different,frog,English_Speech,preschool,katy,,,,,,,,,male
bYMXQ,16,21,fem_plain,mal_sws,2,frog,sheep,eye,frog,eye,sheep,fem_plain_mal_sws,critical,1/11/2017,9:30,right,true,2865,2,2_1_1_0,word_1_word_3_word_2,different,sheep,English_Speech,preschool,katy,,,,,,,,,male
bYMXQ,16,21,fem_plain,mal_sws,3,frog,sheep,eye,frog,eye,sheep,fem_plain_mal_sws,critical,1/11/2017,9:30,left,true,4151,2,2_1_1_0,word_1_word_3_word_2,different,eye,English_Speech,preschool,katy,,,,,,,,,male
bYMXQ,17,19,fem_plain,mal_sws,1,tree,santa,building_blocks,building_blocks,tree,santa,fem_plain_mal_sws,critical,1/11/2017,9:30,right,false,3458,1,2_1_2_0,word_2_word_3_word_1,different,santa,English_Speech,preschool,katy,,,,,,,,,male
bYMXQ,17,19,fem_plain,mal_sws,2,tree,santa,building_blocks,building_blocks,tree,santa,fem_plain_mal_sws,critical,1/11/2017,9:30,right,true,4814,2,2_1_2_0,word_2_word_3_word_1,different,santa,English_Speech,preschool,katy,,,,,,,,,male
bYMXQ,17,19,fem_plain,mal_sws,3,tree,santa,building_blocks,building_blocks,tree,santa,fem_plain_mal_sws,critical,1/11/2017,9:30,top_img,true,3566,2,2_1_2_0,word_2_word_3_word_1,different,building_blocks,English_Speech,preschool,katy,,,,,,,,,male
bYMXQ,18,6,fem_plain,mal_sws,1,carrot,peas,carrot,bird,peas,carrot,fem_plain_mal_sws,critical,1/11/2017,9:30,left,false,1305,2,1_2_1_1,word_1_word_2_word_3,far,peas,English_Speech,preschool,katy,,,,,,,,,male
bYMXQ,18,6,fem_plain,mal_sws,2,carrot,peas,carrot,bird,peas,carrot,fem_plain_mal_sws,critical,1/11/2017,9:30,right,false,610,2,1_2_1_1,word_1_word_2_word_3,far,carrot,English_Speech,preschool,katy,,,,,,,,,male
bYMXQ,18,6,fem_plain,mal_sws,3,carrot,peas,carrot,bird,peas,carrot,fem_plain_mal_sws,critical,1/11/2017,9:30,top_img,false,5790,2,1_2_1_1,word_1_word_2_word_3,far,bird,English_Speech,preschool,katy,,,,,,,,,male
bYMXQ,19,16,fem_plain,mal_sws,1,paintbrush,chair,chair,chair,paintbrush,banana,fem_plain_mal_sws,critical,1/11/2017,9:30,left,true,8431,2,1_2_2_1,word_3_word_1_word_2,near,paintbrush,English_Speech,preschool,katy,,,,,,,,,male
bYMXQ,19,16,fem_plain,mal_sws,2,paintbrush,chair,chair,chair,paintbrush,banana,fem_plain_mal_sws,critical,1/11/2017,9:30,top_img,true,3082,4,1_2_2_1,word_3_word_1_word_2,near,chair,English_Speech,preschool,katy,,,,,,,,,male
bYMXQ,19,16,fem_plain,mal_sws,3,paintbrush,chair,chair,chair,paintbrush,banana,fem_plain_mal_sws,critical,1/11/2017,9:30,top_img,true,3084,2,1_2_2_1,word_3_word_1_word_2,near,chair,English_Speech,preschool,katy,,,,,,,,,male
bYMXQ,20,13,fem_plain,mal_sws,1,airplane,bread,airplane,bread,airplane,toothbrush,fem_plain_mal_sws,critical,1/11/2017,9:30,top_img,false,3216,3,1_2_1_1,word_3_word_2_word_1,far,bread,English_Speech,preschool,katy,,,,,,,,,male
bYMXQ,20,13,fem_plain,mal_sws,2,airplane,bread,airplane,bread,airplane,toothbrush,fem_plain_mal_sws,critical,1/11/2017,9:30,top_img,true,4088,2,1_2_1_1,word_3_word_2_word_1,far,bread,English_Speech,preschool,katy,,,,,,,,,male
bYMXQ,20,13,fem_plain,mal_sws,3,airplane,bread,airplane,bread,airplane,toothbrush,fem_plain_mal_sws,critical,1/11/2017,9:30,left,true,4209,2,1_2_1_1,word_3_word_2_word_1,far,airplane,English_Speech,preschool,katy,,,,,,,,,male
bYMXQ,21,20,fem_plain,mal_sws,1,jumper,apple,jumper,apple,rabbit,jumper,fem_plain_mal_sws,critical,1/11/2017,9:30,right,true,3323,4,2_1_2_1,word_3_word_2_word_1,far,jumper,English_Speech,preschool,katy,,,,,,,,,male
bYMXQ,21,20,fem_plain,mal_sws,2,jumper,apple,jumper,apple,rabbit,jumper,fem_plain_mal_sws,critical,1/11/2017,9:30,top_img,true,6671,2,2_1_2_1,word_3_word_2_word_1,far,apple,English_Speech,preschool,katy,,,,,,,,,male
bYMXQ,21,20,fem_plain,mal_sws,3,jumper,apple,jumper,apple,rabbit,jumper,fem_plain_mal_sws,critical,1/11/2017,9:30,right,true,3821,3,2_1_2_1,word_3_word_2_word_1,far,jumper,English_Speech,preschool,katy,,,,,,,,,male
bYMXQ,22,11,fem_plain,mal_sws,1,lorry,book,book,cow,book,lorry,fem_plain_mal_sws,critical,1/11/2017,9:30,right,true,5934,2,2_1_1_1,word_3_word_1_word_2,near,lorry,English_Speech,preschool,katy,,,,,,,,,male
bYMXQ,22,11,fem_plain,mal_sws,2,lorry,book,book,cow,book,lorry,fem_plain_mal_sws,critical,1/11/2017,9:30,left,true,7601,2,2_1_1_1,word_3_word_1_word_2,near,book,English_Speech,preschool,katy,,,,,,,,,male
bYMXQ,22,11,fem_plain,mal_sws,3,lorry,book,book,cow,book,lorry,fem_plain_mal_sws,critical,1/11/2017,9:30,right,false,6061,2,2_1_1_1,word_3_word_1_word_2,near,lorry,English_Speech,preschool,katy,,,,,,,,,male
bYMXQ,23,8,fem_plain,mal_sws,1,wellyboots,fire_engine,fire_engine,wellyboots,fire_engine,ear,fem_plain_mal_sws,critical,1/11/2017,9:30,left,false,2082,2,2_1_1_1,word_1_word_2_word_3,near,fire_engine,English_Speech,preschool,katy,,,,,,,,,male
bYMXQ,23,8,fem_plain,mal_sws,2,wellyboots,fire_engine,fire_engine,wellyboots,fire_engine,ear,fem_plain_mal_sws,critical,1/11/2017,9:30,top_img,false,4214,2,2_1_1_1,word_1_word_2_word_3,near,wellyboots,English_Speech,preschool,katy,,,,,,,,,male
bYMXQ,23,8,fem_plain,mal_sws,3,wellyboots,fire_engine,fire_engine,wellyboots,fire_engine,ear,fem_plain_mal_sws,critical,1/11/2017,9:30,left,true,138,2,2_1_1_1,word_1_word_2_word_3,near,fire_engine,English_Speech,preschool,katy,,,,,,,,,male
bYMXQ,24,15,fem_plain,mal_sws,1,slide,beans,pencil,slide,beans,pencil,fem_plain_mal_sws,critical,1/11/2017,9:30,top_img,true,6224,2,2_1_1_0,word_1_word_3_word_2,different,slide,English_Speech,preschool,katy,,,,,,,,,male
bYMXQ,24,15,fem_plain,mal_sws,2,slide,beans,pencil,slide,beans,pencil,fem_plain_mal_sws,critical,1/11/2017,9:30,right,false,4945,4,2_1_1_0,word_1_word_3_word_2,different,pencil,English_Speech,preschool,katy,,,,,,,,,male
bYMXQ,24,15,fem_plain,mal_sws,3,slide,beans,pencil,slide,beans,pencil,fem_plain_mal_sws,critical,1/11/2017,9:30,left,false,4426,5,2_1_1_0,word_1_word_3_word_2,different,beans,English_Speech,preschool,katy,,,,,,,,,male
bYMXQ,25,12,fem_plain,mal_sws,1,yoghurt,gloves,yoghurt,gloves,foot,yoghurt,fem_plain_mal_sws,critical,1/11/2017,9:30,right,true,3874,2,1_2_1_1,word_3_word_1_word_2,far,yoghurt,English_Speech,preschool,katy,,,,,,,,,male
bYMXQ,25,12,fem_plain,mal_sws,2,yoghurt,gloves,yoghurt,gloves,foot,yoghurt,fem_plain_mal_sws,critical,1/11/2017,9:30,top_img,true,4941,2,1_2_1_1,word_3_word_1_word_2,far,gloves,English_Speech,preschool,katy,,,,,,,,,male
bYMXQ,25,12,fem_plain,mal_sws,3,yoghurt,gloves,yoghurt,gloves,foot,yoghurt,fem_plain_mal_sws,critical,1/11/2017,9:30,left,false,3962,4,1_2_1_1,word_3_word_1_word_2,far,foot,English_Speech,preschool,katy,,,,,,,,,male
