subject_id,trial_number,trial_id,plain,sws,instruction_number,sound1_item,sound2_item,sound3_item,top_image,left_image,right_image,sound_gender,trial_type,date_stamp,time_stamp,side_chosen,accuracy,rt,play_counter,order,pic_position,distance,chosen_pic,test_lang,testing_loc,tester,date_of_birth,ethnicity,native_lang,other_langs,parental_occ,dev_info,birth_order,num_siblings,gender
CD1Gg,1,0,fem_plain,fem_sws,1,glasses,tractor,fireman,tractor,fireman,glasses,fem_plain_fem_sws,training,2/2/2017,9:25,right,true,6773,4,2_1_2_0,word_3_word_1_word_2,different,glasses,English_Speech,preschool,megan,,,,,,,,,female
CD1Gg,1,0,fem_plain,fem_sws,2,glasses,tractor,fireman,tractor,fireman,glasses,fem_plain_fem_sws,training,2/2/2017,9:25,top_img,true,2424,2,2_1_2_0,word_3_word_1_word_2,different,tractor,English_Speech,preschool,megan,,,,,,,,,female
CD1Gg,1,0,fem_plain,fem_sws,3,glasses,tractor,fireman,tractor,fireman,glasses,fem_plain_fem_sws,training,2/2/2017,9:25,left,true,2822,2,2_1_2_0,word_3_word_1_word_2,different,fireman,English_Speech,preschool,megan,,,,,,,,,female
CD1Gg,2,17,fem_plain,fem_sws,1,cake,hand,cake,ambulance,cake,hand,fem_plain_fem_sws,critical,2/2/2017,9:25,left,true,2481,2,1_2_1_1,word_2_word_1_word_3,far,cake,English_Speech,preschool,megan,,,,,,,,,female
CD1Gg,2,17,fem_plain,fem_sws,2,cake,hand,cake,ambulance,cake,hand,fem_plain_fem_sws,critical,2/2/2017,9:25,right,true,3101,1,1_2_1_1,word_2_word_1_word_3,far,hand,English_Speech,preschool,megan,,,,,,,,,female
CD1Gg,2,17,fem_plain,fem_sws,3,cake,hand,cake,ambulance,cake,hand,fem_plain_fem_sws,critical,2/2/2017,9:25,top_img,false,3040,2,1_2_1_1,word_2_word_1_word_3,far,ambulance,English_Speech,preschool,megan,,,,,,,,,female
CD1Gg,3,1,fem_plain,fem_sws,1,baby,train,train,spoon,baby,train,fem_plain_fem_sws,critical,2/2/2017,9:25,left,true,3329,6,2_1_1_1,word_1_word_2_word_3,near,baby,English_Speech,preschool,megan,,,,,,,,,female
CD1Gg,3,1,fem_plain,fem_sws,2,baby,train,train,spoon,baby,train,fem_plain_fem_sws,critical,2/2/2017,9:25,right,true,4049,4,2_1_1_1,word_1_word_2_word_3,near,train,English_Speech,preschool,megan,,,,,,,,,female
CD1Gg,3,1,fem_plain,fem_sws,3,baby,train,train,spoon,baby,train,fem_plain_fem_sws,critical,2/2/2017,9:25,top_img,false,1994,1,2_1_1_1,word_1_word_2_word_3,near,spoon,English_Speech,preschool,megan,,,,,,,,,female
CD1Gg,4,2,fem_plain,fem_sws,1,bed,fork,chicken,fork,bed,chicken,fem_plain_fem_sws,critical,2/2/2017,9:25,left,true,4507,2,1_2_2_0,word_3_word_1_word_2,different,bed,English_Speech,preschool,megan,,,,,,,,,female
CD1Gg,4,2,fem_plain,fem_sws,2,bed,fork,chicken,fork,bed,chicken,fem_plain_fem_sws,critical,2/2/2017,9:25,top_img,true,6417,4,1_2_2_0,word_3_word_1_word_2,different,fork,English_Speech,preschool,megan,,,,,,,,,female
CD1Gg,4,2,fem_plain,fem_sws,3,bed,fork,chicken,fork,bed,chicken,fem_plain_fem_sws,critical,2/2/2017,9:25,right,true,2606,1,1_2_2_0,word_3_word_1_word_2,different,chicken,English_Speech,preschool,megan,,,,,,,,,female
CD1Gg,5,23,fem_plain,fem_sws,1,bath,teddy_bear,table,table,teddy_bear,bath,fem_plain_fem_sws,critical,2/2/2017,9:25,right,true,3739,4,2_1_2_0,word_3_word_2_word_1,different,bath,English_Speech,preschool,megan,,,,,,,,,female
CD1Gg,5,23,fem_plain,fem_sws,2,bath,teddy_bear,table,table,teddy_bear,bath,fem_plain_fem_sws,critical,2/2/2017,9:25,left,true,4813,2,2_1_2_0,word_3_word_2_word_1,different,teddy_bear,English_Speech,preschool,megan,,,,,,,,,female
CD1Gg,5,23,fem_plain,fem_sws,3,bath,teddy_bear,table,table,teddy_bear,bath,fem_plain_fem_sws,critical,2/2/2017,9:25,top_img,true,4639,4,2_1_2_0,word_3_word_2_word_1,different,table,English_Speech,preschool,megan,,,,,,,,,female
CD1Gg,6,24,fem_plain,fem_sws,1,sink,socks,socks,socks,fish,sink,fem_plain_fem_sws,critical,2/2/2017,9:25,right,true,6002,3,1_2_2_1,word_3_word_2_word_1,near,sink,English_Speech,preschool,megan,,,,,,,,,female
CD1Gg,6,24,fem_plain,fem_sws,2,sink,socks,socks,socks,fish,sink,fem_plain_fem_sws,critical,2/2/2017,9:25,top_img,true,2790,2,1_2_2_1,word_3_word_2_word_1,near,socks,English_Speech,preschool,megan,,,,,,,,,female
CD1Gg,6,24,fem_plain,fem_sws,3,sink,socks,socks,socks,fish,sink,fem_plain_fem_sws,critical,2/2/2017,9:25,left,false,2009,2,1_2_2_1,word_3_word_2_word_1,near,fish,English_Speech,preschool,megan,,,,,,,,,female
CD1Gg,7,3,fem_plain,fem_sws,1,nose,trousers,telephone,trousers,nose,telephone,fem_plain_fem_sws,critical,2/2/2017,9:25,left,true,4377,3,1_2_2_0,word_1_word_2_word_3,different,nose,English_Speech,preschool,megan,,,,,,,,,female
CD1Gg,7,3,fem_plain,fem_sws,2,nose,trousers,telephone,trousers,nose,telephone,fem_plain_fem_sws,critical,2/2/2017,9:25,top_img,true,3345,4,1_2_2_0,word_1_word_2_word_3,different,trousers,English_Speech,preschool,megan,,,,,,,,,female
CD1Gg,7,3,fem_plain,fem_sws,3,nose,trousers,telephone,trousers,nose,telephone,fem_plain_fem_sws,critical,2/2/2017,9:25,right,true,2534,2,1_2_2_0,word_1_word_2_word_3,different,telephone,English_Speech,preschool,megan,,,,,,,,,female
CD1Gg,8,7,fem_plain,fem_sws,1,lolly,horse,horse,horse,lolly,cat,fem_plain_fem_sws,critical,2/2/2017,9:25,left,true,4870,2,1_2_2_1,word_2_word_1_word_3,near,lolly,English_Speech,preschool,megan,,,,,,,,,female
CD1Gg,8,7,fem_plain,fem_sws,2,lolly,horse,horse,horse,lolly,cat,fem_plain_fem_sws,critical,2/2/2017,9:25,top_img,true,3220,4,1_2_2_1,word_2_word_1_word_3,near,horse,English_Speech,preschool,megan,,,,,,,,,female
CD1Gg,8,7,fem_plain,fem_sws,3,lolly,horse,horse,horse,lolly,cat,fem_plain_fem_sws,critical,2/2/2017,9:25,right,false,1701,4,1_2_2_1,word_2_word_1_word_3,near,cat,English_Speech,preschool,megan,,,,,,,,,female
CD1Gg,9,10,fem_plain,fem_sws,1,pig,hat,pig,pig,tshirt,hat,fem_plain_fem_sws,critical,2/2/2017,9:25,top_img,true,2270,1,1_2_1_1,word_1_word_2_word_3,far,pig,English_Speech,preschool,megan,,,,,,,,,female
CD1Gg,9,10,fem_plain,fem_sws,2,pig,hat,pig,pig,tshirt,hat,fem_plain_fem_sws,critical,2/2/2017,9:25,right,true,3036,4,1_2_1_1,word_1_word_2_word_3,far,hat,English_Speech,preschool,megan,,,,,,,,,female
CD1Gg,9,10,fem_plain,fem_sws,3,pig,hat,pig,pig,tshirt,hat,fem_plain_fem_sws,critical,2/2/2017,9:25,left,false,1971,2,1_2_1_1,word_1_word_2_word_3,far,tshirt,English_Speech,preschool,megan,,,,,,,,,female
CD1Gg,10,19,fem_plain,fem_sws,1,building_blocks,santa,tree,tree,santa,building_blocks,fem_plain_fem_sws,critical,2/2/2017,9:25,right,true,2399,2,2_1_1_0,word_3_word_1_word_2,different,building_blocks,English_Speech,preschool,megan,,,,,,,,,female
CD1Gg,10,19,fem_plain,fem_sws,2,building_blocks,santa,tree,tree,santa,building_blocks,fem_plain_fem_sws,critical,2/2/2017,9:25,left,true,3216,2,2_1_1_0,word_3_word_1_word_2,different,santa,English_Speech,preschool,megan,,,,,,,,,female
CD1Gg,10,19,fem_plain,fem_sws,3,building_blocks,santa,tree,tree,santa,building_blocks,fem_plain_fem_sws,critical,2/2/2017,9:25,top_img,true,2620,2,2_1_1_0,word_3_word_1_word_2,different,tree,English_Speech,preschool,megan,,,,,,,,,female
CD1Gg,11,8,fem_plain,fem_sws,1,wellyboots,ear,ear,wellyboots,fire_engine,ear,fem_plain_fem_sws,critical,2/2/2017,9:25,top_img,true,2763,2,2_1_1_1,word_1_word_2_word_3,near,wellyboots,English_Speech,preschool,megan,,,,,,,,,female
CD1Gg,11,8,fem_plain,fem_sws,2,wellyboots,ear,ear,wellyboots,fire_engine,ear,fem_plain_fem_sws,critical,2/2/2017,9:25,right,true,2107,4,2_1_1_1,word_1_word_2_word_3,near,ear,English_Speech,preschool,megan,,,,,,,,,female
CD1Gg,11,8,fem_plain,fem_sws,3,wellyboots,ear,ear,wellyboots,fire_engine,ear,fem_plain_fem_sws,critical,2/2/2017,9:25,left,false,2470,4,2_1_1_1,word_1_word_2_word_3,near,fire_engine,English_Speech,preschool,megan,,,,,,,,,female
CD1Gg,12,9,fem_plain,fem_sws,1,pizza,grapes,pizza,grapes,window,pizza,fem_plain_fem_sws,critical,2/2/2017,9:25,right,true,2696,1,1_2_1_1,word_3_word_2_word_1,far,pizza,English_Speech,preschool,megan,,,,,,,,,female
CD1Gg,12,9,fem_plain,fem_sws,2,pizza,grapes,pizza,grapes,window,pizza,fem_plain_fem_sws,critical,2/2/2017,9:25,top_img,true,2094,1,1_2_1_1,word_3_word_2_word_1,far,grapes,English_Speech,preschool,megan,,,,,,,,,female
CD1Gg,12,9,fem_plain,fem_sws,3,pizza,grapes,pizza,grapes,window,pizza,fem_plain_fem_sws,critical,2/2/2017,9:25,left,false,2275,2,1_2_1_1,word_3_word_2_word_1,far,window,English_Speech,preschool,megan,,,,,,,,,female
CD1Gg,13,5,fem_plain,fem_sws,1,orange,mouth,orange,car,mouth,orange,fem_plain_fem_sws,critical,2/2/2017,9:25,right,true,2881,2,2_1_2_1,word_2_word_3_word_1,far,orange,English_Speech,preschool,megan,,,,,,,,,female
CD1Gg,13,5,fem_plain,fem_sws,2,orange,mouth,orange,car,mouth,orange,fem_plain_fem_sws,critical,2/2/2017,9:25,left,true,2706,2,2_1_2_1,word_2_word_3_word_1,far,mouth,English_Speech,preschool,megan,,,,,,,,,female
CD1Gg,13,5,fem_plain,fem_sws,3,orange,mouth,orange,car,mouth,orange,fem_plain_fem_sws,critical,2/2/2017,9:25,top_img,false,2260,2,2_1_2_1,word_2_word_3_word_1,far,car,English_Speech,preschool,megan,,,,,,,,,female
CD1Gg,14,15,fem_plain,fem_sws,1,slide,beans,pencil,pencil,slide,beans,fem_plain_fem_sws,critical,2/2/2017,9:25,left,true,3042,2,2_1_1_0,word_2_word_1_word_3,different,slide,English_Speech,preschool,megan,,,,,,,,,female
CD1Gg,14,15,fem_plain,fem_sws,2,slide,beans,pencil,pencil,slide,beans,fem_plain_fem_sws,critical,2/2/2017,9:25,right,true,2968,1,2_1_1_0,word_2_word_1_word_3,different,beans,English_Speech,preschool,megan,,,,,,,,,female
CD1Gg,14,15,fem_plain,fem_sws,3,slide,beans,pencil,pencil,slide,beans,fem_plain_fem_sws,critical,2/2/2017,9:25,top_img,true,2208,2,2_1_1_0,word_2_word_1_word_3,different,pencil,English_Speech,preschool,megan,,,,,,,,,female
CD1Gg,15,11,fem_plain,fem_sws,1,cow,lorry,book,lorry,cow,book,fem_plain_fem_sws,critical,2/2/2017,9:25,left,true,3385,1,2_1_1_0,word_2_word_3_word_1,different,cow,English_Speech,preschool,megan,,,,,,,,,female
CD1Gg,15,11,fem_plain,fem_sws,2,cow,lorry,book,lorry,cow,book,fem_plain_fem_sws,critical,2/2/2017,9:25,top_img,true,2578,2,2_1_1_0,word_2_word_3_word_1,different,lorry,English_Speech,preschool,megan,,,,,,,,,female
CD1Gg,15,11,fem_plain,fem_sws,3,cow,lorry,book,lorry,cow,book,fem_plain_fem_sws,critical,2/2/2017,9:25,right,true,3731,2,2_1_1_0,word_2_word_3_word_1,different,book,English_Speech,preschool,megan,,,,,,,,,female
CD1Gg,16,16,fem_plain,fem_sws,1,chair,banana,paintbrush,chair,banana,paintbrush,fem_plain_fem_sws,critical,2/2/2017,9:25,top_img,true,2964,2,2_1_1_0,word_3_word_2_word_1,different,chair,English_Speech,preschool,megan,,,,,,,,,female
CD1Gg,16,16,fem_plain,fem_sws,2,chair,banana,paintbrush,chair,banana,paintbrush,fem_plain_fem_sws,critical,2/2/2017,9:25,left,true,2206,1,2_1_1_0,word_3_word_2_word_1,different,banana,English_Speech,preschool,megan,,,,,,,,,female
CD1Gg,16,16,fem_plain,fem_sws,3,chair,banana,paintbrush,chair,banana,paintbrush,fem_plain_fem_sws,critical,2/2/2017,9:25,right,true,2915,2,2_1_1_0,word_3_word_2_word_1,different,paintbrush,English_Speech,preschool,megan,,,,,,,,,female
CD1Gg,17,20,fem_plain,fem_sws,1,jumper,rabbit,rabbit,apple,rabbit,jumper,fem_plain_fem_sws,critical,2/2/2017,9:25,right,true,2342,2,2_1_1_1,word_3_word_2_word_1,near,jumper,English_Speech,preschool,megan,,,,,,,,,female
CD1Gg,17,20,fem_plain,fem_sws,2,jumper,rabbit,rabbit,apple,rabbit,jumper,fem_plain_fem_sws,critical,2/2/2017,9:25,left,true,2095,2,2_1_1_1,word_3_word_2_word_1,near,rabbit,English_Speech,preschool,megan,,,,,,,,,female
CD1Gg,17,20,fem_plain,fem_sws,3,jumper,rabbit,rabbit,apple,rabbit,jumper,fem_plain_fem_sws,critical,2/2/2017,9:25,top_img,false,2819,1,2_1_1_1,word_3_word_2_word_1,near,apple,English_Speech,preschool,megan,,,,,,,,,female
CD1Gg,18,14,fem_plain,fem_sws,1,cheese,shoes,door,cheese,door,shoes,fem_plain_fem_sws,critical,2/2/2017,9:25,top_img,true,2277,2,2_1_2_0,word_1_word_3_word_2,different,cheese,English_Speech,preschool,megan,,,,,,,,,female
CD1Gg,18,14,fem_plain,fem_sws,2,cheese,shoes,door,cheese,door,shoes,fem_plain_fem_sws,critical,2/2/2017,9:25,right,true,2202,2,2_1_2_0,word_1_word_3_word_2,different,shoes,English_Speech,preschool,megan,,,,,,,,,female
CD1Gg,18,14,fem_plain,fem_sws,3,cheese,shoes,door,cheese,door,shoes,fem_plain_fem_sws,critical,2/2/2017,9:25,left,true,2286,2,2_1_2_0,word_1_word_3_word_2,different,door,English_Speech,preschool,megan,,,,,,,,,female
CD1Gg,19,21,fem_plain,fem_sws,1,frog,sheep,eye,eye,sheep,frog,fem_plain_fem_sws,critical,2/2/2017,9:25,right,true,2803,1,1_2_2_0,word_3_word_2_word_1,different,frog,English_Speech,preschool,megan,,,,,,,,,female
CD1Gg,19,21,fem_plain,fem_sws,2,frog,sheep,eye,eye,sheep,frog,fem_plain_fem_sws,critical,2/2/2017,9:25,left,true,2200,2,1_2_2_0,word_3_word_2_word_1,different,sheep,English_Speech,preschool,megan,,,,,,,,,female
CD1Gg,19,21,fem_plain,fem_sws,3,frog,sheep,eye,eye,sheep,frog,fem_plain_fem_sws,critical,2/2/2017,9:25,top_img,true,5641,2,1_2_2_0,word_3_word_2_word_1,different,eye,English_Speech,preschool,megan,,,,,,,,,female
CD1Gg,20,13,fem_plain,fem_sws,1,toothbrush,bread,toothbrush,airplane,bread,toothbrush,fem_plain_fem_sws,critical,2/2/2017,9:25,right,true,2073,2,2_1_2_1,word_2_word_3_word_1,far,toothbrush,English_Speech,preschool,megan,,,,,,,,,female
CD1Gg,20,13,fem_plain,fem_sws,2,toothbrush,bread,toothbrush,airplane,bread,toothbrush,fem_plain_fem_sws,critical,2/2/2017,9:25,left,true,2459,2,2_1_2_1,word_2_word_3_word_1,far,bread,English_Speech,preschool,megan,,,,,,,,,female
CD1Gg,20,13,fem_plain,fem_sws,3,toothbrush,bread,toothbrush,airplane,bread,toothbrush,fem_plain_fem_sws,critical,2/2/2017,9:25,top_img,false,2198,2,2_1_2_1,word_2_word_3_word_1,far,airplane,English_Speech,preschool,megan,,,,,,,,,female
CD1Gg,21,12,fem_plain,fem_sws,1,gloves,foot,yoghurt,yoghurt,foot,gloves,fem_plain_fem_sws,critical,2/2/2017,9:25,right,true,3486,4,2_1_1_0,word_2_word_1_word_3,different,gloves,English_Speech,preschool,megan,,,,,,,,,female
CD1Gg,21,12,fem_plain,fem_sws,2,gloves,foot,yoghurt,yoghurt,foot,gloves,fem_plain_fem_sws,critical,2/2/2017,9:25,left,true,2098,1,2_1_1_0,word_2_word_1_word_3,different,foot,English_Speech,preschool,megan,,,,,,,,,female
CD1Gg,21,12,fem_plain,fem_sws,3,gloves,foot,yoghurt,yoghurt,foot,gloves,fem_plain_fem_sws,critical,2/2/2017,9:25,top_img,true,2528,2,2_1_1_0,word_2_word_1_word_3,different,yoghurt,English_Speech,preschool,megan,,,,,,,,,female
CD1Gg,22,18,fem_plain,fem_sws,1,raspberry,ball,camera,raspberry,ball,camera,fem_plain_fem_sws,critical,2/2/2017,9:25,top_img,true,3120,2,2_1_1_0,word_2_word_1_word_3,different,raspberry,English_Speech,preschool,megan,,,,,,,,,female
CD1Gg,22,18,fem_plain,fem_sws,2,raspberry,ball,camera,raspberry,ball,camera,fem_plain_fem_sws,critical,2/2/2017,9:25,left,true,3009,1,2_1_1_0,word_2_word_1_word_3,different,ball,English_Speech,preschool,megan,,,,,,,,,female
CD1Gg,22,18,fem_plain,fem_sws,3,raspberry,ball,camera,raspberry,ball,camera,fem_plain_fem_sws,critical,2/2/2017,9:25,right,true,2397,2,2_1_1_0,word_2_word_1_word_3,different,camera,English_Speech,preschool,megan,,,,,,,,,female
CD1Gg,23,4,fem_plain,fem_sws,1,coat,flower,coat,strawberry,flower,coat,fem_plain_fem_sws,critical,2/2/2017,9:25,right,true,2669,2,2_1_2_1,word_2_word_3_word_1,far,coat,English_Speech,preschool,megan,,,,,,,,,female
CD1Gg,23,4,fem_plain,fem_sws,2,coat,flower,coat,strawberry,flower,coat,fem_plain_fem_sws,critical,2/2/2017,9:25,left,true,2109,2,2_1_2_1,word_2_word_3_word_1,far,flower,English_Speech,preschool,megan,,,,,,,,,female
CD1Gg,23,4,fem_plain,fem_sws,3,coat,flower,coat,strawberry,flower,coat,fem_plain_fem_sws,critical,2/2/2017,9:25,top_img,false,2375,2,2_1_2_1,word_2_word_3_word_1,far,strawberry,English_Speech,preschool,megan,,,,,,,,,female
CD1Gg,24,22,fem_plain,fem_sws,1,doctor,dog,dog,doctor,dog,bike,fem_plain_fem_sws,critical,2/2/2017,9:25,top_img,true,2937,2,1_2_2_1,word_3_word_2_word_1,near,doctor,English_Speech,preschool,megan,,,,,,,,,female
CD1Gg,24,22,fem_plain,fem_sws,2,doctor,dog,dog,doctor,dog,bike,fem_plain_fem_sws,critical,2/2/2017,9:25,left,true,2385,1,1_2_2_1,word_3_word_2_word_1,near,dog,English_Speech,preschool,megan,,,,,,,,,female
CD1Gg,24,22,fem_plain,fem_sws,3,doctor,dog,dog,doctor,dog,bike,fem_plain_fem_sws,critical,2/2/2017,9:25,right,false,2042,2,1_2_2_1,word_3_word_2_word_1,near,bike,English_Speech,preschool,megan,,,,,,,,,female
CD1Gg,25,6,fem_plain,fem_sws,1,peas,bird,peas,carrot,peas,bird,fem_plain_fem_sws,critical,2/2/2017,9:25,left,true,2512,2,1_2_1_1,word_3_word_2_word_1,far,peas,English_Speech,preschool,megan,,,,,,,,,female
CD1Gg,25,6,fem_plain,fem_sws,2,peas,bird,peas,carrot,peas,bird,fem_plain_fem_sws,critical,2/2/2017,9:25,right,true,2074,2,1_2_1_1,word_3_word_2_word_1,far,bird,English_Speech,preschool,megan,,,,,,,,,female
CD1Gg,25,6,fem_plain,fem_sws,3,peas,bird,peas,carrot,peas,bird,fem_plain_fem_sws,critical,2/2/2017,9:25,top_img,false,5098,2,1_2_1_1,word_3_word_2_word_1,far,carrot,English_Speech,preschool,megan,,,,,,,,,female
