subject_id,trial_number,trial_id,plain,sws,instruction_number,sound1_item,sound2_item,sound3_item,top_image,left_image,right_image,sound_gender,trial_type,date_stamp,time_stamp,side_chosen,accuracy,rt,play_counter,order,pic_position,distance,chosen_pic,test_lang,testing_loc,tester,date_of_birth,ethnicity,native_lang,other_langs,parental_occ,dev_info,birth_order,num_siblings,gender
FFPAm,1,0,fem_plain,fem_sws,1,tractor,glasses,tractor,fireman,glasses,tractor,fem_plain_fem_sws,training,1/11/2017,11:05,right,true,4187,2,2_1_2_1,word_1_word_2_word_3,far,tractor,English_Speech,preschool,megan,,,,,,,,,male
FFPAm,1,0,fem_plain,fem_sws,2,tractor,glasses,tractor,fireman,glasses,tractor,fem_plain_fem_sws,training,1/11/2017,11:05,left,true,3669,1,2_1_2_1,word_1_word_2_word_3,far,glasses,English_Speech,preschool,megan,,,,,,,,,male
FFPAm,1,0,fem_plain,fem_sws,3,tractor,glasses,tractor,fireman,glasses,tractor,fem_plain_fem_sws,training,1/11/2017,11:05,top_img,false,4297,2,2_1_2_1,word_1_word_2_word_3,far,fireman,English_Speech,preschool,megan,,,,,,,,,male
FFPAm,2,14,fem_plain,fem_sws,1,door,shoes,shoes,shoes,cheese,door,fem_plain_fem_sws,critical,1/11/2017,11:05,right,true,2412,1,2_1_1_1,word_2_word_1_word_3,near,door,English_Speech,preschool,megan,,,,,,,,,male
FFPAm,2,14,fem_plain,fem_sws,2,door,shoes,shoes,shoes,cheese,door,fem_plain_fem_sws,critical,1/11/2017,11:05,top_img,true,2673,1,2_1_1_1,word_2_word_1_word_3,near,shoes,English_Speech,preschool,megan,,,,,,,,,male
FFPAm,2,14,fem_plain,fem_sws,3,door,shoes,shoes,shoes,cheese,door,fem_plain_fem_sws,critical,1/11/2017,11:05,left,false,3387,6,2_1_1_1,word_2_word_1_word_3,near,cheese,English_Speech,preschool,megan,,,,,,,,,male
FFPAm,3,11,fem_plain,fem_sws,1,lorry,book,cow,lorry,cow,book,fem_plain_fem_sws,critical,1/11/2017,11:05,top_img,true,4239,2,2_1_1_0,word_2_word_3_word_1,different,lorry,English_Speech,preschool,megan,,,,,,,,,male
FFPAm,3,11,fem_plain,fem_sws,2,lorry,book,cow,lorry,cow,book,fem_plain_fem_sws,critical,1/11/2017,11:05,right,true,2889,2,2_1_1_0,word_2_word_3_word_1,different,book,English_Speech,preschool,megan,,,,,,,,,male
FFPAm,3,11,fem_plain,fem_sws,3,lorry,book,cow,lorry,cow,book,fem_plain_fem_sws,critical,1/11/2017,11:05,left,true,3602,1,2_1_1_0,word_2_word_3_word_1,different,cow,English_Speech,preschool,megan,,,,,,,,,male
FFPAm,4,12,fem_plain,fem_sws,1,foot,gloves,yoghurt,yoghurt,gloves,foot,fem_plain_fem_sws,critical,1/11/2017,11:05,right,true,2400,2,2_1_1_0,word_2_word_3_word_1,different,foot,English_Speech,preschool,megan,,,,,,,,,male
FFPAm,4,12,fem_plain,fem_sws,2,foot,gloves,yoghurt,yoghurt,gloves,foot,fem_plain_fem_sws,critical,1/11/2017,11:05,left,true,3550,2,2_1_1_0,word_2_word_3_word_1,different,gloves,English_Speech,preschool,megan,,,,,,,,,male
FFPAm,4,12,fem_plain,fem_sws,3,foot,gloves,yoghurt,yoghurt,gloves,foot,fem_plain_fem_sws,critical,1/11/2017,11:05,top_img,true,4159,1,2_1_1_0,word_2_word_3_word_1,different,yoghurt,English_Speech,preschool,megan,,,,,,,,,male
FFPAm,5,9,fem_plain,fem_sws,1,grapes,pizza,pizza,pizza,window,grapes,fem_plain_fem_sws,critical,1/11/2017,11:05,right,true,5192,1,1_2_2_1,word_1_word_2_word_3,near,grapes,English_Speech,preschool,megan,,,,,,,,,male
FFPAm,5,9,fem_plain,fem_sws,2,grapes,pizza,pizza,pizza,window,grapes,fem_plain_fem_sws,critical,1/11/2017,11:05,top_img,true,2476,2,1_2_2_1,word_1_word_2_word_3,near,pizza,English_Speech,preschool,megan,,,,,,,,,male
FFPAm,5,9,fem_plain,fem_sws,3,grapes,pizza,pizza,pizza,window,grapes,fem_plain_fem_sws,critical,1/11/2017,11:05,left,false,3719,1,1_2_2_1,word_1_word_2_word_3,near,window,English_Speech,preschool,megan,,,,,,,,,male
FFPAm,6,6,fem_plain,fem_sws,1,peas,bird,bird,peas,bird,carrot,fem_plain_fem_sws,critical,1/11/2017,11:05,top_img,true,4860,1,1_2_2_1,word_2_word_1_word_3,near,peas,English_Speech,preschool,megan,,,,,,,,,male
FFPAm,6,6,fem_plain,fem_sws,2,peas,bird,bird,peas,bird,carrot,fem_plain_fem_sws,critical,1/11/2017,11:05,left,true,2650,1,1_2_2_1,word_2_word_1_word_3,near,bird,English_Speech,preschool,megan,,,,,,,,,male
FFPAm,6,6,fem_plain,fem_sws,3,peas,bird,bird,peas,bird,carrot,fem_plain_fem_sws,critical,1/11/2017,11:05,right,false,3458,2,1_2_2_1,word_2_word_1_word_3,near,carrot,English_Speech,preschool,megan,,,,,,,,,male
FFPAm,7,19,fem_plain,fem_sws,1,building_blocks,santa,tree,tree,building_blocks,santa,fem_plain_fem_sws,critical,1/11/2017,11:05,left,true,2406,2,2_1_1_0,word_3_word_2_word_1,different,building_blocks,English_Speech,preschool,megan,,,,,,,,,male
FFPAm,7,19,fem_plain,fem_sws,2,building_blocks,santa,tree,tree,building_blocks,santa,fem_plain_fem_sws,critical,1/11/2017,11:05,right,true,3660,2,2_1_1_0,word_3_word_2_word_1,different,santa,English_Speech,preschool,megan,,,,,,,,,male
FFPAm,7,19,fem_plain,fem_sws,3,building_blocks,santa,tree,tree,building_blocks,santa,fem_plain_fem_sws,critical,1/11/2017,11:05,top_img,true,2914,1,2_1_1_0,word_3_word_2_word_1,different,tree,English_Speech,preschool,megan,,,,,,,,,male
FFPAm,8,18,fem_plain,fem_sws,1,ball,raspberry,camera,ball,raspberry,camera,fem_plain_fem_sws,critical,1/11/2017,11:05,right,false,3382,3,2_1_2_0,word_1_word_2_word_3,different,camera,English_Speech,preschool,megan,,,,,,,,,male
FFPAm,8,18,fem_plain,fem_sws,2,ball,raspberry,camera,ball,raspberry,camera,fem_plain_fem_sws,critical,1/11/2017,11:05,left,true,3790,1,2_1_2_0,word_1_word_2_word_3,different,raspberry,English_Speech,preschool,megan,,,,,,,,,male
FFPAm,8,18,fem_plain,fem_sws,3,ball,raspberry,camera,ball,raspberry,camera,fem_plain_fem_sws,critical,1/11/2017,11:05,top_img,false,6733,2,2_1_2_0,word_1_word_2_word_3,different,ball,English_Speech,preschool,megan,,,,,,,,,male
FFPAm,9,7,fem_plain,fem_sws,1,lolly,horse,lolly,horse,lolly,cat,fem_plain_fem_sws,critical,1/11/2017,11:05,left,true,4165,2,2_1_2_1,word_2_word_1_word_3,far,lolly,English_Speech,preschool,megan,,,,,,,,,male
FFPAm,9,7,fem_plain,fem_sws,2,lolly,horse,lolly,horse,lolly,cat,fem_plain_fem_sws,critical,1/11/2017,11:05,top_img,true,2996,3,2_1_2_1,word_2_word_1_word_3,far,horse,English_Speech,preschool,megan,,,,,,,,,male
FFPAm,9,7,fem_plain,fem_sws,3,lolly,horse,lolly,horse,lolly,cat,fem_plain_fem_sws,critical,1/11/2017,11:05,left,true,6011,1,2_1_2_1,word_2_word_1_word_3,far,lolly,English_Speech,preschool,megan,,,,,,,,,male
FFPAm,10,5,fem_plain,fem_sws,1,car,mouth,mouth,orange,car,mouth,fem_plain_fem_sws,critical,1/11/2017,11:05,left,true,3127,2,2_1_1_1,word_1_word_2_word_3,near,car,English_Speech,preschool,megan,,,,,,,,,male
FFPAm,10,5,fem_plain,fem_sws,2,car,mouth,mouth,orange,car,mouth,fem_plain_fem_sws,critical,1/11/2017,11:05,right,true,2831,2,2_1_1_1,word_1_word_2_word_3,near,mouth,English_Speech,preschool,megan,,,,,,,,,male
FFPAm,10,5,fem_plain,fem_sws,3,car,mouth,mouth,orange,car,mouth,fem_plain_fem_sws,critical,1/11/2017,11:05,right,true,4543,3,2_1_1_1,word_1_word_2_word_3,near,mouth,English_Speech,preschool,megan,,,,,,,,,male
FFPAm,11,15,fem_plain,fem_sws,1,beans,slide,pencil,slide,pencil,beans,fem_plain_fem_sws,critical,1/11/2017,11:05,right,true,4584,2,1_2_2_0,word_1_word_2_word_3,different,beans,English_Speech,preschool,megan,,,,,,,,,male
FFPAm,11,15,fem_plain,fem_sws,2,beans,slide,pencil,slide,pencil,beans,fem_plain_fem_sws,critical,1/11/2017,11:05,left,false,3464,1,1_2_2_0,word_1_word_2_word_3,different,pencil,English_Speech,preschool,megan,,,,,,,,,male
FFPAm,11,15,fem_plain,fem_sws,3,beans,slide,pencil,slide,pencil,beans,fem_plain_fem_sws,critical,1/11/2017,11:05,top_img,false,4856,1,1_2_2_0,word_1_word_2_word_3,different,slide,English_Speech,preschool,megan,,,,,,,,,male
FFPAm,12,13,fem_plain,fem_sws,1,airplane,toothbrush,toothbrush,bread,airplane,toothbrush,fem_plain_fem_sws,critical,1/11/2017,11:05,left,true,3034,2,1_2_2_1,word_3_word_2_word_1,near,airplane,English_Speech,preschool,megan,,,,,,,,,male
FFPAm,12,13,fem_plain,fem_sws,2,airplane,toothbrush,toothbrush,bread,airplane,toothbrush,fem_plain_fem_sws,critical,1/11/2017,11:05,right,true,2500,4,1_2_2_1,word_3_word_2_word_1,near,toothbrush,English_Speech,preschool,megan,,,,,,,,,male
FFPAm,12,13,fem_plain,fem_sws,3,airplane,toothbrush,toothbrush,bread,airplane,toothbrush,fem_plain_fem_sws,critical,1/11/2017,11:05,top_img,false,2605,3,1_2_2_1,word_3_word_2_word_1,near,bread,English_Speech,preschool,megan,,,,,,,,,male
FFPAm,13,20,fem_plain,fem_sws,1,apple,jumper,rabbit,rabbit,jumper,apple,fem_plain_fem_sws,critical,1/11/2017,11:05,right,true,2284,2,1_2_2_0,word_2_word_1_word_3,different,apple,English_Speech,preschool,megan,,,,,,,,,male
FFPAm,13,20,fem_plain,fem_sws,2,apple,jumper,rabbit,rabbit,jumper,apple,fem_plain_fem_sws,critical,1/11/2017,11:05,left,true,2181,2,1_2_2_0,word_2_word_1_word_3,different,jumper,English_Speech,preschool,megan,,,,,,,,,male
FFPAm,13,20,fem_plain,fem_sws,3,apple,jumper,rabbit,rabbit,jumper,apple,fem_plain_fem_sws,critical,1/11/2017,11:05,top_img,true,4236,2,1_2_2_0,word_2_word_1_word_3,different,rabbit,English_Speech,preschool,megan,,,,,,,,,male
FFPAm,14,2,fem_plain,fem_sws,1,chicken,bed,fork,fork,bed,chicken,fem_plain_fem_sws,critical,1/11/2017,11:05,top_img,false,782,2,2_1_2_0,word_3_word_1_word_2,different,fork,English_Speech,preschool,megan,,,,,,,,,male
FFPAm,14,2,fem_plain,fem_sws,2,chicken,bed,fork,fork,bed,chicken,fem_plain_fem_sws,critical,1/11/2017,11:05,left,true,3661,2,2_1_2_0,word_3_word_1_word_2,different,bed,English_Speech,preschool,megan,,,,,,,,,male
FFPAm,14,2,fem_plain,fem_sws,3,chicken,bed,fork,fork,bed,chicken,fem_plain_fem_sws,critical,1/11/2017,11:05,top_img,true,3495,2,2_1_2_0,word_3_word_1_word_2,different,fork,English_Speech,preschool,megan,,,,,,,,,male
FFPAm,15,17,fem_plain,fem_sws,1,ambulance,hand,cake,cake,ambulance,hand,fem_plain_fem_sws,critical,1/11/2017,11:05,top_img,false,4692,1,1_2_2_0,word_1_word_2_word_3,different,cake,English_Speech,preschool,megan,,,,,,,,,male
FFPAm,15,17,fem_plain,fem_sws,2,ambulance,hand,cake,cake,ambulance,hand,fem_plain_fem_sws,critical,1/11/2017,11:05,right,true,3351,1,1_2_2_0,word_1_word_2_word_3,different,hand,English_Speech,preschool,megan,,,,,,,,,male
FFPAm,15,17,fem_plain,fem_sws,3,ambulance,hand,cake,cake,ambulance,hand,fem_plain_fem_sws,critical,1/11/2017,11:05,top_img,true,3667,3,1_2_2_0,word_1_word_2_word_3,different,cake,English_Speech,preschool,megan,,,,,,,,,male
FFPAm,16,24,fem_plain,fem_sws,1,sink,fish,fish,socks,sink,fish,fem_plain_fem_sws,critical,1/11/2017,11:05,left,true,3678,2,2_1_1_1,word_3_word_1_word_2,near,sink,English_Speech,preschool,megan,,,,,,,,,male
FFPAm,16,24,fem_plain,fem_sws,2,sink,fish,fish,socks,sink,fish,fem_plain_fem_sws,critical,1/11/2017,11:05,right,true,2705,2,2_1_1_1,word_3_word_1_word_2,near,fish,English_Speech,preschool,megan,,,,,,,,,male
FFPAm,16,24,fem_plain,fem_sws,3,sink,fish,fish,socks,sink,fish,fem_plain_fem_sws,critical,1/11/2017,11:05,top_img,false,3453,2,2_1_1_1,word_3_word_1_word_2,near,socks,English_Speech,preschool,megan,,,,,,,,,male
FFPAm,17,4,fem_plain,fem_sws,1,coat,strawberry,coat,strawberry,coat,flower,fem_plain_fem_sws,critical,1/11/2017,11:05,top_img,false,2611,6,1_2_1_1,word_2_word_1_word_3,far,strawberry,English_Speech,preschool,megan,,,,,,,,,male
FFPAm,17,4,fem_plain,fem_sws,2,coat,strawberry,coat,strawberry,coat,flower,fem_plain_fem_sws,critical,1/11/2017,11:05,top_img,true,2864,2,1_2_1_1,word_2_word_1_word_3,far,strawberry,English_Speech,preschool,megan,,,,,,,,,male
FFPAm,17,4,fem_plain,fem_sws,3,coat,strawberry,coat,strawberry,coat,flower,fem_plain_fem_sws,critical,1/11/2017,11:05,left,true,5299,2,1_2_1_1,word_2_word_1_word_3,far,coat,English_Speech,preschool,megan,,,,,,,,,male
FFPAm,18,1,fem_plain,fem_sws,1,baby,spoon,train,baby,spoon,train,fem_plain_fem_sws,critical,1/11/2017,11:05,top_img,true,3273,1,2_1_1_0,word_2_word_1_word_3,different,baby,English_Speech,preschool,megan,,,,,,,,,male
FFPAm,18,1,fem_plain,fem_sws,2,baby,spoon,train,baby,spoon,train,fem_plain_fem_sws,critical,1/11/2017,11:05,left,true,2371,1,2_1_1_0,word_2_word_1_word_3,different,spoon,English_Speech,preschool,megan,,,,,,,,,male
FFPAm,18,1,fem_plain,fem_sws,3,baby,spoon,train,baby,spoon,train,fem_plain_fem_sws,critical,1/11/2017,11:05,right,true,2303,2,2_1_1_0,word_2_word_1_word_3,different,train,English_Speech,preschool,megan,,,,,,,,,male
FFPAm,19,22,fem_plain,fem_sws,1,dog,doctor,bike,doctor,dog,bike,fem_plain_fem_sws,critical,1/11/2017,11:05,left,true,3845,2,2_1_1_0,word_3_word_2_word_1,different,dog,English_Speech,preschool,megan,,,,,,,,,male
FFPAm,19,22,fem_plain,fem_sws,2,dog,doctor,bike,doctor,dog,bike,fem_plain_fem_sws,critical,1/11/2017,11:05,left,false,4844,2,2_1_1_0,word_3_word_2_word_1,different,dog,English_Speech,preschool,megan,,,,,,,,,male
FFPAm,19,22,fem_plain,fem_sws,3,dog,doctor,bike,doctor,dog,bike,fem_plain_fem_sws,critical,1/11/2017,11:05,right,true,2464,2,2_1_1_0,word_3_word_2_word_1,different,bike,English_Speech,preschool,megan,,,,,,,,,male
FFPAm,20,8,fem_plain,fem_sws,1,wellyboots,ear,wellyboots,ear,fire_engine,wellyboots,fem_plain_fem_sws,critical,1/11/2017,11:05,right,true,3641,1,1_2_1_1,word_3_word_2_word_1,far,wellyboots,English_Speech,preschool,megan,,,,,,,,,male
FFPAm,20,8,fem_plain,fem_sws,2,wellyboots,ear,wellyboots,ear,fire_engine,wellyboots,fem_plain_fem_sws,critical,1/11/2017,11:05,top_img,true,2253,2,1_2_1_1,word_3_word_2_word_1,far,ear,English_Speech,preschool,megan,,,,,,,,,male
FFPAm,20,8,fem_plain,fem_sws,3,wellyboots,ear,wellyboots,ear,fire_engine,wellyboots,fem_plain_fem_sws,critical,1/11/2017,11:05,left,false,4026,2,1_2_1_1,word_3_word_2_word_1,far,fire_engine,English_Speech,preschool,megan,,,,,,,,,male
FFPAm,21,3,fem_plain,fem_sws,1,telephone,trousers,telephone,trousers,nose,telephone,fem_plain_fem_sws,critical,1/11/2017,11:05,right,true,3646,2,2_1_2_1,word_1_word_2_word_3,far,telephone,English_Speech,preschool,megan,,,,,,,,,male
FFPAm,21,3,fem_plain,fem_sws,2,telephone,trousers,telephone,trousers,nose,telephone,fem_plain_fem_sws,critical,1/11/2017,11:05,top_img,true,2713,2,2_1_2_1,word_1_word_2_word_3,far,trousers,English_Speech,preschool,megan,,,,,,,,,male
FFPAm,21,3,fem_plain,fem_sws,3,telephone,trousers,telephone,trousers,nose,telephone,fem_plain_fem_sws,critical,1/11/2017,11:05,left,false,3529,2,2_1_2_1,word_1_word_2_word_3,far,nose,English_Speech,preschool,megan,,,,,,,,,male
FFPAm,22,10,fem_plain,fem_sws,1,tshirt,hat,pig,pig,tshirt,hat,fem_plain_fem_sws,critical,1/11/2017,11:05,left,true,2858,5,2_1_2_0,word_1_word_2_word_3,different,tshirt,English_Speech,preschool,megan,,,,,,,,,male
FFPAm,22,10,fem_plain,fem_sws,2,tshirt,hat,pig,pig,tshirt,hat,fem_plain_fem_sws,critical,1/11/2017,11:05,right,true,3625,1,2_1_2_0,word_1_word_2_word_3,different,hat,English_Speech,preschool,megan,,,,,,,,,male
FFPAm,22,10,fem_plain,fem_sws,3,tshirt,hat,pig,pig,tshirt,hat,fem_plain_fem_sws,critical,1/11/2017,11:05,top_img,true,1502,2,2_1_2_0,word_1_word_2_word_3,different,pig,English_Speech,preschool,megan,,,,,,,,,male
FFPAm,23,23,fem_plain,fem_sws,1,teddy_bear,table,teddy_bear,bath,table,teddy_bear,fem_plain_fem_sws,critical,1/11/2017,11:05,right,true,3273,2,1_2_1_1,word_1_word_3_word_2,far,teddy_bear,English_Speech,preschool,megan,,,,,,,,,male
FFPAm,23,23,fem_plain,fem_sws,2,teddy_bear,table,teddy_bear,bath,table,teddy_bear,fem_plain_fem_sws,critical,1/11/2017,11:05,left,true,5556,1,1_2_1_1,word_1_word_3_word_2,far,table,English_Speech,preschool,megan,,,,,,,,,male
FFPAm,23,23,fem_plain,fem_sws,3,teddy_bear,table,teddy_bear,bath,table,teddy_bear,fem_plain_fem_sws,critical,1/11/2017,11:05,top_img,false,7388,1,1_2_1_1,word_1_word_3_word_2,far,bath,English_Speech,preschool,megan,,,,,,,,,male
FFPAm,24,21,fem_plain,fem_sws,1,frog,sheep,eye,eye,sheep,frog,fem_plain_fem_sws,critical,1/11/2017,11:05,right,true,4170,1,2_1_1_0,word_3_word_2_word_1,different,frog,English_Speech,preschool,megan,,,,,,,,,male
FFPAm,24,21,fem_plain,fem_sws,2,frog,sheep,eye,eye,sheep,frog,fem_plain_fem_sws,critical,1/11/2017,11:05,left,true,3759,2,2_1_1_0,word_3_word_2_word_1,different,sheep,English_Speech,preschool,megan,,,,,,,,,male
FFPAm,24,21,fem_plain,fem_sws,3,frog,sheep,eye,eye,sheep,frog,fem_plain_fem_sws,critical,1/11/2017,11:05,top_img,true,3188,2,2_1_1_0,word_3_word_2_word_1,different,eye,English_Speech,preschool,megan,,,,,,,,,male
FFPAm,25,16,fem_plain,fem_sws,1,banana,chair,banana,banana,chair,paintbrush,fem_plain_fem_sws,critical,1/11/2017,11:05,top_img,true,1969,2,1_2_1_1,word_2_word_3_word_1,far,banana,English_Speech,preschool,megan,,,,,,,,,male
FFPAm,25,16,fem_plain,fem_sws,2,banana,chair,banana,banana,chair,paintbrush,fem_plain_fem_sws,critical,1/11/2017,11:05,left,true,5007,2,1_2_1_1,word_2_word_3_word_1,far,chair,English_Speech,preschool,megan,,,,,,,,,male
FFPAm,25,16,fem_plain,fem_sws,3,banana,chair,banana,banana,chair,paintbrush,fem_plain_fem_sws,critical,1/11/2017,11:05,right,false,2321,2,1_2_1_1,word_2_word_3_word_1,far,paintbrush,English_Speech,preschool,megan,,,,,,,,,male
