subject_id,trial_number,trial_id,plain,sws,instruction_number,sound1_item,sound2_item,sound3_item,top_image,left_image,right_image,sound_gender,trial_type,date_stamp,time_stamp,side_chosen,accuracy,rt,play_counter,order,pic_position,distance,chosen_pic,test_lang,testing_loc,tester,date_of_birth,ethnicity,native_lang,other_langs,parental_occ,dev_info,birth_order,num_siblings,gender
gxSj8,1,0,fem_plain,fem_sws,1,tractor,glasses,glasses,fireman,tractor,glasses,fem_plain_fem_sws,training,2/1/2017,10:12,left,true,6166,1,1_2_2_1,word_1_word_3_word_2,near,tractor,English_Speech,preschool,megan,,,,,,,,,female
gxSj8,1,0,fem_plain,fem_sws,2,tractor,glasses,glasses,fireman,tractor,glasses,fem_plain_fem_sws,training,2/1/2017,10:12,right,true,2627,2,1_2_2_1,word_1_word_3_word_2,near,glasses,English_Speech,preschool,megan,,,,,,,,,female
gxSj8,1,0,fem_plain,fem_sws,3,tractor,glasses,glasses,fireman,tractor,glasses,fem_plain_fem_sws,training,2/1/2017,10:12,right,true,4500,6,1_2_2_1,word_1_word_3_word_2,near,glasses,English_Speech,preschool,megan,,,,,,,,,female
gxSj8,2,6,fem_plain,fem_sws,1,peas,bird,carrot,peas,carrot,bird,fem_plain_fem_sws,critical,2/1/2017,10:12,top_img,true,2923,2,1_2_2_0,word_2_word_3_word_1,different,peas,English_Speech,preschool,megan,,,,,,,,,female
gxSj8,2,6,fem_plain,fem_sws,2,peas,bird,carrot,peas,carrot,bird,fem_plain_fem_sws,critical,2/1/2017,10:12,right,true,2763,2,1_2_2_0,word_2_word_3_word_1,different,bird,English_Speech,preschool,megan,,,,,,,,,female
gxSj8,2,6,fem_plain,fem_sws,3,peas,bird,carrot,peas,carrot,bird,fem_plain_fem_sws,critical,2/1/2017,10:12,left,true,5919,4,1_2_2_0,word_2_word_3_word_1,different,carrot,English_Speech,preschool,megan,,,,,,,,,female
gxSj8,3,21,fem_plain,fem_sws,1,eye,sheep,frog,eye,frog,sheep,fem_plain_fem_sws,critical,2/1/2017,10:12,top_img,true,2863,2,2_1_1_0,word_3_word_1_word_2,different,eye,English_Speech,preschool,megan,,,,,,,,,female
gxSj8,3,21,fem_plain,fem_sws,2,eye,sheep,frog,eye,frog,sheep,fem_plain_fem_sws,critical,2/1/2017,10:12,right,true,2667,2,2_1_1_0,word_3_word_1_word_2,different,sheep,English_Speech,preschool,megan,,,,,,,,,female
gxSj8,3,21,fem_plain,fem_sws,3,eye,sheep,frog,eye,frog,sheep,fem_plain_fem_sws,critical,2/1/2017,10:12,left,true,4724,2,2_1_1_0,word_3_word_1_word_2,different,frog,English_Speech,preschool,megan,,,,,,,,,female
gxSj8,4,19,fem_plain,fem_sws,1,santa,tree,building_blocks,building_blocks,tree,santa,fem_plain_fem_sws,critical,2/1/2017,10:12,right,true,3190,2,2_1_1_0,word_2_word_3_word_1,different,santa,English_Speech,preschool,megan,,,,,,,,,female
gxSj8,4,19,fem_plain,fem_sws,2,santa,tree,building_blocks,building_blocks,tree,santa,fem_plain_fem_sws,critical,2/1/2017,10:12,left,true,3206,2,2_1_1_0,word_2_word_3_word_1,different,tree,English_Speech,preschool,megan,,,,,,,,,female
gxSj8,4,19,fem_plain,fem_sws,3,santa,tree,building_blocks,building_blocks,tree,santa,fem_plain_fem_sws,critical,2/1/2017,10:12,top_img,true,6545,2,2_1_1_0,word_2_word_3_word_1,different,building_blocks,English_Speech,preschool,megan,,,,,,,,,female
gxSj8,5,10,fem_plain,fem_sws,1,hat,tshirt,pig,pig,hat,tshirt,fem_plain_fem_sws,critical,2/1/2017,10:12,left,true,3732,2,2_1_2_0,word_1_word_3_word_2,different,hat,English_Speech,preschool,megan,,,,,,,,,female
gxSj8,5,10,fem_plain,fem_sws,2,hat,tshirt,pig,pig,hat,tshirt,fem_plain_fem_sws,critical,2/1/2017,10:12,right,true,3361,2,2_1_2_0,word_1_word_3_word_2,different,tshirt,English_Speech,preschool,megan,,,,,,,,,female
gxSj8,5,10,fem_plain,fem_sws,3,hat,tshirt,pig,pig,hat,tshirt,fem_plain_fem_sws,critical,2/1/2017,10:12,top_img,true,3899,2,2_1_2_0,word_1_word_3_word_2,different,pig,English_Speech,preschool,megan,,,,,,,,,female
gxSj8,6,13,fem_plain,fem_sws,1,toothbrush,airplane,airplane,bread,toothbrush,airplane,fem_plain_fem_sws,critical,2/1/2017,10:12,left,true,3239,2,1_2_2_1,word_3_word_1_word_2,near,toothbrush,English_Speech,preschool,megan,,,,,,,,,female
gxSj8,6,13,fem_plain,fem_sws,2,toothbrush,airplane,airplane,bread,toothbrush,airplane,fem_plain_fem_sws,critical,2/1/2017,10:12,right,true,3829,2,1_2_2_1,word_3_word_1_word_2,near,airplane,English_Speech,preschool,megan,,,,,,,,,female
gxSj8,6,13,fem_plain,fem_sws,3,toothbrush,airplane,airplane,bread,toothbrush,airplane,fem_plain_fem_sws,critical,2/1/2017,10:12,right,true,9028,2,1_2_2_1,word_3_word_1_word_2,near,airplane,English_Speech,preschool,megan,,,,,,,,,female
gxSj8,7,7,fem_plain,fem_sws,1,lolly,cat,cat,cat,horse,lolly,fem_plain_fem_sws,critical,2/1/2017,10:12,right,true,3591,2,2_1_1_1,word_3_word_2_word_1,near,lolly,English_Speech,preschool,megan,,,,,,,,,female
gxSj8,7,7,fem_plain,fem_sws,2,lolly,cat,cat,cat,horse,lolly,fem_plain_fem_sws,critical,2/1/2017,10:12,top_img,true,3223,1,2_1_1_1,word_3_word_2_word_1,near,cat,English_Speech,preschool,megan,,,,,,,,,female
gxSj8,7,7,fem_plain,fem_sws,3,lolly,cat,cat,cat,horse,lolly,fem_plain_fem_sws,critical,2/1/2017,10:12,left,false,7899,4,2_1_1_1,word_3_word_2_word_1,near,horse,English_Speech,preschool,megan,,,,,,,,,female
gxSj8,8,12,fem_plain,fem_sws,1,foot,yoghurt,foot,yoghurt,gloves,foot,fem_plain_fem_sws,critical,2/1/2017,10:12,right,true,2525,2,2_1_2_1,word_2_word_3_word_1,far,foot,English_Speech,preschool,megan,,,,,,,,,female
gxSj8,8,12,fem_plain,fem_sws,2,foot,yoghurt,foot,yoghurt,gloves,foot,fem_plain_fem_sws,critical,2/1/2017,10:12,top_img,true,2610,1,2_1_2_1,word_2_word_3_word_1,far,yoghurt,English_Speech,preschool,megan,,,,,,,,,female
gxSj8,8,12,fem_plain,fem_sws,3,foot,yoghurt,foot,yoghurt,gloves,foot,fem_plain_fem_sws,critical,2/1/2017,10:12,left,false,5132,1,2_1_2_1,word_2_word_3_word_1,far,gloves,English_Speech,preschool,megan,,,,,,,,,female
gxSj8,9,22,fem_plain,fem_sws,1,bike,dog,bike,bike,dog,doctor,fem_plain_fem_sws,critical,2/1/2017,10:12,top_img,true,3294,2,1_2_1_1,word_1_word_2_word_3,far,bike,English_Speech,preschool,megan,,,,,,,,,female
gxSj8,9,22,fem_plain,fem_sws,2,bike,dog,bike,bike,dog,doctor,fem_plain_fem_sws,critical,2/1/2017,10:12,left,true,2689,1,1_2_1_1,word_1_word_2_word_3,far,dog,English_Speech,preschool,megan,,,,,,,,,female
gxSj8,9,22,fem_plain,fem_sws,3,bike,dog,bike,bike,dog,doctor,fem_plain_fem_sws,critical,2/1/2017,10:12,right,false,9222,2,1_2_1_1,word_1_word_2_word_3,far,doctor,English_Speech,preschool,megan,,,,,,,,,female
gxSj8,10,24,fem_plain,fem_sws,1,socks,sink,fish,fish,socks,sink,fem_plain_fem_sws,critical,2/1/2017,10:12,left,true,3677,2,2_1_1_0,word_2_word_3_word_1,different,socks,English_Speech,preschool,megan,,,,,,,,,female
gxSj8,10,24,fem_plain,fem_sws,2,socks,sink,fish,fish,socks,sink,fem_plain_fem_sws,critical,2/1/2017,10:12,right,true,3119,4,2_1_1_0,word_2_word_3_word_1,different,sink,English_Speech,preschool,megan,,,,,,,,,female
gxSj8,10,24,fem_plain,fem_sws,3,socks,sink,fish,fish,socks,sink,fem_plain_fem_sws,critical,2/1/2017,10:12,top_img,true,4091,2,2_1_1_0,word_2_word_3_word_1,different,fish,English_Speech,preschool,megan,,,,,,,,,female
gxSj8,11,14,fem_plain,fem_sws,1,shoes,door,cheese,cheese,door,shoes,fem_plain_fem_sws,critical,2/1/2017,10:12,right,true,3467,2,2_1_1_0,word_1_word_3_word_2,different,shoes,English_Speech,preschool,megan,,,,,,,,,female
gxSj8,11,14,fem_plain,fem_sws,2,shoes,door,cheese,cheese,door,shoes,fem_plain_fem_sws,critical,2/1/2017,10:12,left,true,2785,2,2_1_1_0,word_1_word_3_word_2,different,door,English_Speech,preschool,megan,,,,,,,,,female
gxSj8,11,14,fem_plain,fem_sws,3,shoes,door,cheese,cheese,door,shoes,fem_plain_fem_sws,critical,2/1/2017,10:12,top_img,true,4198,4,2_1_1_0,word_1_word_3_word_2,different,cheese,English_Speech,preschool,megan,,,,,,,,,female
gxSj8,12,15,fem_plain,fem_sws,1,slide,pencil,pencil,beans,slide,pencil,fem_plain_fem_sws,critical,2/1/2017,10:12,left,true,3872,2,1_2_2_1,word_3_word_1_word_2,near,slide,English_Speech,preschool,megan,,,,,,,,,female
gxSj8,12,15,fem_plain,fem_sws,2,slide,pencil,pencil,beans,slide,pencil,fem_plain_fem_sws,critical,2/1/2017,10:12,right,true,2596,1,1_2_2_1,word_3_word_1_word_2,near,pencil,English_Speech,preschool,megan,,,,,,,,,female
gxSj8,12,15,fem_plain,fem_sws,3,slide,pencil,pencil,beans,slide,pencil,fem_plain_fem_sws,critical,2/1/2017,10:12,top_img,false,4423,2,1_2_2_1,word_3_word_1_word_2,near,beans,English_Speech,preschool,megan,,,,,,,,,female
gxSj8,13,20,fem_plain,fem_sws,1,rabbit,jumper,rabbit,apple,rabbit,jumper,fem_plain_fem_sws,critical,2/1/2017,10:12,left,true,2997,2,2_1_2_1,word_3_word_2_word_1,far,rabbit,English_Speech,preschool,megan,,,,,,,,,female
gxSj8,13,20,fem_plain,fem_sws,2,rabbit,jumper,rabbit,apple,rabbit,jumper,fem_plain_fem_sws,critical,2/1/2017,10:12,right,true,2378,2,2_1_2_1,word_3_word_2_word_1,far,jumper,English_Speech,preschool,megan,,,,,,,,,female
gxSj8,13,20,fem_plain,fem_sws,3,rabbit,jumper,rabbit,apple,rabbit,jumper,fem_plain_fem_sws,critical,2/1/2017,10:12,left,true,5203,2,2_1_2_1,word_3_word_2_word_1,far,rabbit,English_Speech,preschool,megan,,,,,,,,,female
gxSj8,14,8,fem_plain,fem_sws,1,wellyboots,fire_engine,ear,ear,fire_engine,wellyboots,fem_plain_fem_sws,critical,2/1/2017,10:12,right,true,3644,2,2_1_1_0,word_3_word_2_word_1,different,wellyboots,English_Speech,preschool,megan,,,,,,,,,female
gxSj8,14,8,fem_plain,fem_sws,2,wellyboots,fire_engine,ear,ear,fire_engine,wellyboots,fem_plain_fem_sws,critical,2/1/2017,10:12,left,true,3427,1,2_1_1_0,word_3_word_2_word_1,different,fire_engine,English_Speech,preschool,megan,,,,,,,,,female
gxSj8,14,8,fem_plain,fem_sws,3,wellyboots,fire_engine,ear,ear,fire_engine,wellyboots,fem_plain_fem_sws,critical,2/1/2017,10:12,top_img,true,3701,2,2_1_1_0,word_3_word_2_word_1,different,ear,English_Speech,preschool,megan,,,,,,,,,female
gxSj8,15,18,fem_plain,fem_sws,1,camera,raspberry,camera,camera,raspberry,ball,fem_plain_fem_sws,critical,2/1/2017,10:12,top_img,true,2632,2,1_2_1_1,word_3_word_2_word_1,far,camera,English_Speech,preschool,megan,,,,,,,,,female
gxSj8,15,18,fem_plain,fem_sws,2,camera,raspberry,camera,camera,raspberry,ball,fem_plain_fem_sws,critical,2/1/2017,10:12,left,true,2958,2,1_2_1_1,word_3_word_2_word_1,far,raspberry,English_Speech,preschool,megan,,,,,,,,,female
gxSj8,15,18,fem_plain,fem_sws,3,camera,raspberry,camera,camera,raspberry,ball,fem_plain_fem_sws,critical,2/1/2017,10:12,right,false,4638,2,1_2_1_1,word_3_word_2_word_1,far,ball,English_Speech,preschool,megan,,,,,,,,,female
gxSj8,16,3,fem_plain,fem_sws,1,telephone,trousers,telephone,nose,telephone,trousers,fem_plain_fem_sws,critical,2/1/2017,10:12,left,true,3527,2,2_1_2_1,word_2_word_3_word_1,far,telephone,English_Speech,preschool,megan,,,,,,,,,female
gxSj8,16,3,fem_plain,fem_sws,2,telephone,trousers,telephone,nose,telephone,trousers,fem_plain_fem_sws,critical,2/1/2017,10:12,right,true,2004,2,2_1_2_1,word_2_word_3_word_1,far,trousers,English_Speech,preschool,megan,,,,,,,,,female
gxSj8,16,3,fem_plain,fem_sws,3,telephone,trousers,telephone,nose,telephone,trousers,fem_plain_fem_sws,critical,2/1/2017,10:12,top_img,false,6151,2,2_1_2_1,word_2_word_3_word_1,far,nose,English_Speech,preschool,megan,,,,,,,,,female
gxSj8,17,16,fem_plain,fem_sws,1,paintbrush,banana,chair,chair,banana,paintbrush,fem_plain_fem_sws,critical,2/1/2017,10:12,right,true,3482,2,2_1_1_0,word_3_word_2_word_1,different,paintbrush,English_Speech,preschool,megan,,,,,,,,,female
gxSj8,17,16,fem_plain,fem_sws,2,paintbrush,banana,chair,chair,banana,paintbrush,fem_plain_fem_sws,critical,2/1/2017,10:12,left,true,2231,2,2_1_1_0,word_3_word_2_word_1,different,banana,English_Speech,preschool,megan,,,,,,,,,female
gxSj8,17,16,fem_plain,fem_sws,3,paintbrush,banana,chair,chair,banana,paintbrush,fem_plain_fem_sws,critical,2/1/2017,10:12,top_img,true,3563,2,2_1_1_0,word_3_word_2_word_1,different,chair,English_Speech,preschool,megan,,,,,,,,,female
gxSj8,18,2,fem_plain,fem_sws,1,chicken,bed,fork,fork,chicken,bed,fem_plain_fem_sws,critical,2/1/2017,10:12,left,true,4567,2,1_2_2_0,word_3_word_2_word_1,different,chicken,English_Speech,preschool,megan,,,,,,,,,female
gxSj8,18,2,fem_plain,fem_sws,2,chicken,bed,fork,fork,chicken,bed,fem_plain_fem_sws,critical,2/1/2017,10:12,right,true,3676,2,1_2_2_0,word_3_word_2_word_1,different,bed,English_Speech,preschool,megan,,,,,,,,,female
gxSj8,18,2,fem_plain,fem_sws,3,chicken,bed,fork,fork,chicken,bed,fem_plain_fem_sws,critical,2/1/2017,10:12,top_img,true,3738,2,1_2_2_0,word_3_word_2_word_1,different,fork,English_Speech,preschool,megan,,,,,,,,,female
gxSj8,19,5,fem_plain,fem_sws,1,car,mouth,car,mouth,orange,car,fem_plain_fem_sws,critical,2/1/2017,10:12,right,true,7518,2,1_2_1_1,word_3_word_1_word_2,far,car,English_Speech,preschool,megan,,,,,,,,,female
gxSj8,19,5,fem_plain,fem_sws,2,car,mouth,car,mouth,orange,car,fem_plain_fem_sws,critical,2/1/2017,10:12,top_img,true,2593,2,1_2_1_1,word_3_word_1_word_2,far,mouth,English_Speech,preschool,megan,,,,,,,,,female
gxSj8,19,5,fem_plain,fem_sws,3,car,mouth,car,mouth,orange,car,fem_plain_fem_sws,critical,2/1/2017,10:12,right,true,5760,1,1_2_1_1,word_3_word_1_word_2,far,car,English_Speech,preschool,megan,,,,,,,,,female
gxSj8,20,11,fem_plain,fem_sws,1,cow,lorry,book,book,cow,lorry,fem_plain_fem_sws,critical,2/1/2017,10:12,left,true,1091,3,2_1_2_0,word_1_word_3_word_2,different,cow,English_Speech,preschool,megan,,,,,,,,,female
gxSj8,20,11,fem_plain,fem_sws,2,cow,lorry,book,book,cow,lorry,fem_plain_fem_sws,critical,2/1/2017,10:12,right,true,2449,2,2_1_2_0,word_1_word_3_word_2,different,lorry,English_Speech,preschool,megan,,,,,,,,,female
gxSj8,20,11,fem_plain,fem_sws,3,cow,lorry,book,book,cow,lorry,fem_plain_fem_sws,critical,2/1/2017,10:12,left,false,7360,2,2_1_2_0,word_1_word_3_word_2,different,cow,English_Speech,preschool,megan,,,,,,,,,female
gxSj8,21,4,fem_plain,fem_sws,1,flower,coat,strawberry,strawberry,coat,flower,fem_plain_fem_sws,critical,2/1/2017,10:12,right,true,3835,2,1_2_2_0,word_2_word_1_word_3,different,flower,English_Speech,preschool,megan,,,,,,,,,female
gxSj8,21,4,fem_plain,fem_sws,2,flower,coat,strawberry,strawberry,coat,flower,fem_plain_fem_sws,critical,2/1/2017,10:12,left,true,2444,1,1_2_2_0,word_2_word_1_word_3,different,coat,English_Speech,preschool,megan,,,,,,,,,female
gxSj8,21,4,fem_plain,fem_sws,3,flower,coat,strawberry,strawberry,coat,flower,fem_plain_fem_sws,critical,2/1/2017,10:12,top_img,true,2889,1,1_2_2_0,word_2_word_1_word_3,different,strawberry,English_Speech,preschool,megan,,,,,,,,,female
gxSj8,22,9,fem_plain,fem_sws,1,pizza,grapes,window,pizza,grapes,window,fem_plain_fem_sws,critical,2/1/2017,10:12,top_img,true,2727,2,2_1_2_0,word_1_word_3_word_2,different,pizza,English_Speech,preschool,megan,,,,,,,,,female
gxSj8,22,9,fem_plain,fem_sws,2,pizza,grapes,window,pizza,grapes,window,fem_plain_fem_sws,critical,2/1/2017,10:12,left,true,2079,2,2_1_2_0,word_1_word_3_word_2,different,grapes,English_Speech,preschool,megan,,,,,,,,,female
gxSj8,22,9,fem_plain,fem_sws,3,pizza,grapes,window,pizza,grapes,window,fem_plain_fem_sws,critical,2/1/2017,10:12,right,true,6683,2,2_1_2_0,word_1_word_3_word_2,different,window,English_Speech,preschool,megan,,,,,,,,,female
gxSj8,23,1,fem_plain,fem_sws,1,baby,spoon,spoon,baby,train,spoon,fem_plain_fem_sws,critical,2/1/2017,10:12,top_img,true,2555,2,2_1_1_1,word_2_word_3_word_1,near,baby,English_Speech,preschool,megan,,,,,,,,,female
gxSj8,23,1,fem_plain,fem_sws,2,baby,spoon,spoon,baby,train,spoon,fem_plain_fem_sws,critical,2/1/2017,10:12,right,true,2926,2,2_1_1_1,word_2_word_3_word_1,near,spoon,English_Speech,preschool,megan,,,,,,,,,female
gxSj8,23,1,fem_plain,fem_sws,3,baby,spoon,spoon,baby,train,spoon,fem_plain_fem_sws,critical,2/1/2017,10:12,right,true,3796,3,2_1_1_1,word_2_word_3_word_1,near,spoon,English_Speech,preschool,megan,,,,,,,,,female
gxSj8,24,17,fem_plain,fem_sws,1,hand,ambulance,ambulance,hand,ambulance,cake,fem_plain_fem_sws,critical,2/1/2017,10:12,top_img,true,2917,2,2_1_1_1,word_3_word_2_word_1,near,hand,English_Speech,preschool,megan,,,,,,,,,female
gxSj8,24,17,fem_plain,fem_sws,2,hand,ambulance,ambulance,hand,ambulance,cake,fem_plain_fem_sws,critical,2/1/2017,10:12,left,true,2526,2,2_1_1_1,word_3_word_2_word_1,near,ambulance,English_Speech,preschool,megan,,,,,,,,,female
gxSj8,24,17,fem_plain,fem_sws,3,hand,ambulance,ambulance,hand,ambulance,cake,fem_plain_fem_sws,critical,2/1/2017,10:12,left,true,4174,2,2_1_1_1,word_3_word_2_word_1,near,ambulance,English_Speech,preschool,megan,,,,,,,,,female
gxSj8,25,23,fem_plain,fem_sws,1,table,bath,table,teddy_bear,table,bath,fem_plain_fem_sws,critical,2/1/2017,10:12,left,true,3231,2,1_2_1_1,word_2_word_3_word_1,far,table,English_Speech,preschool,megan,,,,,,,,,female
gxSj8,25,23,fem_plain,fem_sws,2,table,bath,table,teddy_bear,table,bath,fem_plain_fem_sws,critical,2/1/2017,10:12,right,true,2638,1,1_2_1_1,word_2_word_3_word_1,far,bath,English_Speech,preschool,megan,,,,,,,,,female
gxSj8,25,23,fem_plain,fem_sws,3,table,bath,table,teddy_bear,table,bath,fem_plain_fem_sws,critical,2/1/2017,10:12,left,true,3845,2,1_2_1_1,word_2_word_3_word_1,far,table,English_Speech,preschool,megan,,,,,,,,,female
