subject_id,trial_number,trial_id,plain,sws,instruction_number,sound1_item,sound2_item,sound3_item,top_image,left_image,right_image,sound_gender,trial_type,date_stamp,time_stamp,side_chosen,accuracy,rt,play_counter,order,pic_position,distance,chosen_pic,test_lang,testing_loc,tester,date_of_birth,ethnicity,native_lang,other_langs,parental_occ,dev_info,birth_order,num_siblings,gender
iAiXc,1,0,fem_plain,fem_sws,1,glasses,fireman,glasses,fireman,glasses,tractor,fem_plain_fem_sws,training,2/2/2017,10:40,left,true,3434,2,1_2_1_1,word_1_word_2_word_3,far,glasses,English_Speech,preschool,megan,,,,,,,,,female
iAiXc,1,0,fem_plain,fem_sws,2,glasses,fireman,glasses,fireman,glasses,tractor,fem_plain_fem_sws,training,2/2/2017,10:40,top_img,true,2476,2,1_2_1_1,word_1_word_2_word_3,far,fireman,English_Speech,preschool,megan,,,,,,,,,female
iAiXc,1,0,fem_plain,fem_sws,3,glasses,fireman,glasses,fireman,glasses,tractor,fem_plain_fem_sws,training,2/2/2017,10:40,right,false,2886,2,1_2_1_1,word_1_word_2_word_3,far,tractor,English_Speech,preschool,megan,,,,,,,,,female
iAiXc,2,11,fem_plain,fem_sws,1,book,lorry,cow,cow,book,lorry,fem_plain_fem_sws,critical,2/2/2017,10:40,left,true,5181,1,2_1_1_0,word_3_word_1_word_2,different,book,English_Speech,preschool,megan,,,,,,,,,female
iAiXc,2,11,fem_plain,fem_sws,2,book,lorry,cow,cow,book,lorry,fem_plain_fem_sws,critical,2/2/2017,10:40,right,true,2303,2,2_1_1_0,word_3_word_1_word_2,different,lorry,English_Speech,preschool,megan,,,,,,,,,female
iAiXc,2,11,fem_plain,fem_sws,3,book,lorry,cow,cow,book,lorry,fem_plain_fem_sws,critical,2/2/2017,10:40,left,false,2441,2,2_1_1_0,word_3_word_1_word_2,different,book,English_Speech,preschool,megan,,,,,,,,,female
iAiXc,3,7,fem_plain,fem_sws,1,horse,lolly,horse,horse,lolly,cat,fem_plain_fem_sws,critical,2/2/2017,10:40,top_img,true,2456,2,2_1_2_1,word_2_word_1_word_3,far,horse,English_Speech,preschool,megan,,,,,,,,,female
iAiXc,3,7,fem_plain,fem_sws,2,horse,lolly,horse,horse,lolly,cat,fem_plain_fem_sws,critical,2/2/2017,10:40,left,true,3382,2,2_1_2_1,word_2_word_1_word_3,far,lolly,English_Speech,preschool,megan,,,,,,,,,female
iAiXc,3,7,fem_plain,fem_sws,3,horse,lolly,horse,horse,lolly,cat,fem_plain_fem_sws,critical,2/2/2017,10:40,top_img,true,497,6,2_1_2_1,word_2_word_1_word_3,far,horse,English_Speech,preschool,megan,,,,,,,,,female
iAiXc,4,9,fem_plain,fem_sws,1,pizza,window,pizza,grapes,window,pizza,fem_plain_fem_sws,critical,2/2/2017,10:40,right,true,2986,1,1_2_1_1,word_3_word_2_word_1,far,pizza,English_Speech,preschool,megan,,,,,,,,,female
iAiXc,4,9,fem_plain,fem_sws,2,pizza,window,pizza,grapes,window,pizza,fem_plain_fem_sws,critical,2/2/2017,10:40,left,true,1976,2,1_2_1_1,word_3_word_2_word_1,far,window,English_Speech,preschool,megan,,,,,,,,,female
iAiXc,4,9,fem_plain,fem_sws,3,pizza,window,pizza,grapes,window,pizza,fem_plain_fem_sws,critical,2/2/2017,10:40,top_img,false,1695,2,1_2_1_1,word_3_word_2_word_1,far,grapes,English_Speech,preschool,megan,,,,,,,,,female
iAiXc,5,19,fem_plain,fem_sws,1,building_blocks,santa,tree,santa,tree,building_blocks,fem_plain_fem_sws,critical,2/2/2017,10:40,right,true,2906,2,2_1_1_0,word_1_word_3_word_2,different,building_blocks,English_Speech,preschool,megan,,,,,,,,,female
iAiXc,5,19,fem_plain,fem_sws,2,building_blocks,santa,tree,santa,tree,building_blocks,fem_plain_fem_sws,critical,2/2/2017,10:40,top_img,true,3026,1,2_1_1_0,word_1_word_3_word_2,different,santa,English_Speech,preschool,megan,,,,,,,,,female
iAiXc,5,19,fem_plain,fem_sws,3,building_blocks,santa,tree,santa,tree,building_blocks,fem_plain_fem_sws,critical,2/2/2017,10:40,left,true,2109,2,2_1_1_0,word_1_word_3_word_2,different,tree,English_Speech,preschool,megan,,,,,,,,,female
iAiXc,6,24,fem_plain,fem_sws,1,socks,fish,socks,fish,socks,sink,fem_plain_fem_sws,critical,2/2/2017,10:40,left,true,2773,2,2_1_2_1,word_2_word_3_word_1,far,socks,English_Speech,preschool,megan,,,,,,,,,female
iAiXc,6,24,fem_plain,fem_sws,2,socks,fish,socks,fish,socks,sink,fem_plain_fem_sws,critical,2/2/2017,10:40,top_img,true,2208,2,2_1_2_1,word_2_word_3_word_1,far,fish,English_Speech,preschool,megan,,,,,,,,,female
iAiXc,6,24,fem_plain,fem_sws,3,socks,fish,socks,fish,socks,sink,fem_plain_fem_sws,critical,2/2/2017,10:40,right,false,2138,2,2_1_2_1,word_2_word_3_word_1,far,sink,English_Speech,preschool,megan,,,,,,,,,female
iAiXc,7,15,fem_plain,fem_sws,1,beans,slide,pencil,beans,slide,pencil,fem_plain_fem_sws,critical,2/2/2017,10:40,top_img,true,3333,2,1_2_2_0,word_3_word_1_word_2,different,beans,English_Speech,preschool,megan,,,,,,,,,female
iAiXc,7,15,fem_plain,fem_sws,2,beans,slide,pencil,beans,slide,pencil,fem_plain_fem_sws,critical,2/2/2017,10:40,left,true,4064,2,1_2_2_0,word_3_word_1_word_2,different,slide,English_Speech,preschool,megan,,,,,,,,,female
iAiXc,7,15,fem_plain,fem_sws,3,beans,slide,pencil,beans,slide,pencil,fem_plain_fem_sws,critical,2/2/2017,10:40,right,true,261,2,1_2_2_0,word_3_word_1_word_2,different,pencil,English_Speech,preschool,megan,,,,,,,,,female
iAiXc,8,17,fem_plain,fem_sws,1,cake,ambulance,hand,ambulance,hand,cake,fem_plain_fem_sws,critical,2/2/2017,10:40,right,true,2699,2,2_1_2_0,word_2_word_3_word_1,different,cake,English_Speech,preschool,megan,,,,,,,,,female
iAiXc,8,17,fem_plain,fem_sws,2,cake,ambulance,hand,ambulance,hand,cake,fem_plain_fem_sws,critical,2/2/2017,10:40,top_img,true,2058,1,2_1_2_0,word_2_word_3_word_1,different,ambulance,English_Speech,preschool,megan,,,,,,,,,female
iAiXc,8,17,fem_plain,fem_sws,3,cake,ambulance,hand,ambulance,hand,cake,fem_plain_fem_sws,critical,2/2/2017,10:40,left,true,1635,2,2_1_2_0,word_2_word_3_word_1,different,hand,English_Speech,preschool,megan,,,,,,,,,female
iAiXc,9,2,fem_plain,fem_sws,1,fork,chicken,bed,chicken,bed,fork,fem_plain_fem_sws,critical,2/2/2017,10:40,right,true,3525,1,2_1_1_0,word_2_word_1_word_3,different,fork,English_Speech,preschool,megan,,,,,,,,,female
iAiXc,9,2,fem_plain,fem_sws,2,fork,chicken,bed,chicken,bed,fork,fem_plain_fem_sws,critical,2/2/2017,10:40,top_img,true,2812,2,2_1_1_0,word_2_word_1_word_3,different,chicken,English_Speech,preschool,megan,,,,,,,,,female
iAiXc,9,2,fem_plain,fem_sws,3,fork,chicken,bed,chicken,bed,fork,fem_plain_fem_sws,critical,2/2/2017,10:40,left,true,410,2,2_1_1_0,word_2_word_1_word_3,different,bed,English_Speech,preschool,megan,,,,,,,,,female
iAiXc,10,6,fem_plain,fem_sws,1,carrot,bird,bird,bird,carrot,peas,fem_plain_fem_sws,critical,2/2/2017,10:40,top_img,false,2288,2,2_1_1_1,word_1_word_3_word_2,near,bird,English_Speech,preschool,megan,,,,,,,,,female
iAiXc,10,6,fem_plain,fem_sws,2,carrot,bird,bird,bird,carrot,peas,fem_plain_fem_sws,critical,2/2/2017,10:40,left,false,1087,2,2_1_1_1,word_1_word_3_word_2,near,carrot,English_Speech,preschool,megan,,,,,,,,,female
iAiXc,10,6,fem_plain,fem_sws,3,carrot,bird,bird,bird,carrot,peas,fem_plain_fem_sws,critical,2/2/2017,10:40,top_img,true,505,1,2_1_1_1,word_1_word_3_word_2,near,bird,English_Speech,preschool,megan,,,,,,,,,female
iAiXc,11,16,fem_plain,fem_sws,1,paintbrush,banana,banana,banana,chair,paintbrush,fem_plain_fem_sws,critical,2/2/2017,10:40,right,true,3770,2,1_2_2_1,word_2_word_3_word_1,near,paintbrush,English_Speech,preschool,megan,,,,,,,,,female
iAiXc,11,16,fem_plain,fem_sws,2,paintbrush,banana,banana,banana,chair,paintbrush,fem_plain_fem_sws,critical,2/2/2017,10:40,top_img,true,2290,2,1_2_2_1,word_2_word_3_word_1,near,banana,English_Speech,preschool,megan,,,,,,,,,female
iAiXc,11,16,fem_plain,fem_sws,3,paintbrush,banana,banana,banana,chair,paintbrush,fem_plain_fem_sws,critical,2/2/2017,10:40,top_img,true,891,4,1_2_2_1,word_2_word_3_word_1,near,banana,English_Speech,preschool,megan,,,,,,,,,female
iAiXc,12,13,fem_plain,fem_sws,1,bread,toothbrush,airplane,toothbrush,airplane,bread,fem_plain_fem_sws,critical,2/2/2017,10:40,right,true,2881,3,2_1_2_0,word_1_word_2_word_3,different,bread,English_Speech,preschool,megan,,,,,,,,,female
iAiXc,12,13,fem_plain,fem_sws,2,bread,toothbrush,airplane,toothbrush,airplane,bread,fem_plain_fem_sws,critical,2/2/2017,10:40,top_img,true,2492,2,2_1_2_0,word_1_word_2_word_3,different,toothbrush,English_Speech,preschool,megan,,,,,,,,,female
iAiXc,12,13,fem_plain,fem_sws,3,bread,toothbrush,airplane,toothbrush,airplane,bread,fem_plain_fem_sws,critical,2/2/2017,10:40,left,true,3708,2,2_1_2_0,word_1_word_2_word_3,different,airplane,English_Speech,preschool,megan,,,,,,,,,female
iAiXc,13,14,fem_plain,fem_sws,1,cheese,shoes,cheese,shoes,door,cheese,fem_plain_fem_sws,critical,2/2/2017,10:40,left,false,3529,2,2_1_2_1,word_2_word_3_word_1,far,door,English_Speech,preschool,megan,,,,,,,,,female
iAiXc,13,14,fem_plain,fem_sws,2,cheese,shoes,cheese,shoes,door,cheese,fem_plain_fem_sws,critical,2/2/2017,10:40,top_img,true,2626,2,2_1_2_1,word_2_word_3_word_1,far,shoes,English_Speech,preschool,megan,,,,,,,,,female
iAiXc,13,14,fem_plain,fem_sws,3,cheese,shoes,cheese,shoes,door,cheese,fem_plain_fem_sws,critical,2/2/2017,10:40,top_img,false,6282,2,2_1_2_1,word_2_word_3_word_1,far,shoes,English_Speech,preschool,megan,,,,,,,,,female
iAiXc,14,1,fem_plain,fem_sws,1,baby,train,train,spoon,train,baby,fem_plain_fem_sws,critical,2/2/2017,10:40,right,true,2970,1,1_2_2_1,word_1_word_3_word_2,near,baby,English_Speech,preschool,megan,,,,,,,,,female
iAiXc,14,1,fem_plain,fem_sws,2,baby,train,train,spoon,train,baby,fem_plain_fem_sws,critical,2/2/2017,10:40,left,true,2651,1,1_2_2_1,word_1_word_3_word_2,near,train,English_Speech,preschool,megan,,,,,,,,,female
iAiXc,14,1,fem_plain,fem_sws,3,baby,train,train,spoon,train,baby,fem_plain_fem_sws,critical,2/2/2017,10:40,left,true,2972,3,1_2_2_1,word_1_word_3_word_2,near,train,English_Speech,preschool,megan,,,,,,,,,female
iAiXc,15,23,fem_plain,fem_sws,1,bath,teddy_bear,teddy_bear,bath,teddy_bear,table,fem_plain_fem_sws,critical,2/2/2017,10:40,left,false,4535,2,2_1_1_1,word_1_word_2_word_3,near,teddy_bear,English_Speech,preschool,megan,,,,,,,,,female
iAiXc,15,23,fem_plain,fem_sws,2,bath,teddy_bear,teddy_bear,bath,teddy_bear,table,fem_plain_fem_sws,critical,2/2/2017,10:40,left,true,4170,3,2_1_1_1,word_1_word_2_word_3,near,teddy_bear,English_Speech,preschool,megan,,,,,,,,,female
iAiXc,15,23,fem_plain,fem_sws,3,bath,teddy_bear,teddy_bear,bath,teddy_bear,table,fem_plain_fem_sws,critical,2/2/2017,10:40,right,false,1502,4,2_1_1_1,word_1_word_2_word_3,near,table,English_Speech,preschool,megan,,,,,,,,,female
iAiXc,16,20,fem_plain,fem_sws,1,jumper,apple,rabbit,rabbit,apple,jumper,fem_plain_fem_sws,critical,2/2/2017,10:40,left,false,2686,2,1_2_2_0,word_2_word_3_word_1,different,apple,English_Speech,preschool,megan,,,,,,,,,female
iAiXc,16,20,fem_plain,fem_sws,2,jumper,apple,rabbit,rabbit,apple,jumper,fem_plain_fem_sws,critical,2/2/2017,10:40,left,true,3303,2,1_2_2_0,word_2_word_3_word_1,different,apple,English_Speech,preschool,megan,,,,,,,,,female
iAiXc,16,20,fem_plain,fem_sws,3,jumper,apple,rabbit,rabbit,apple,jumper,fem_plain_fem_sws,critical,2/2/2017,10:40,top_img,true,2794,2,1_2_2_0,word_2_word_3_word_1,different,rabbit,English_Speech,preschool,megan,,,,,,,,,female
iAiXc,17,5,fem_plain,fem_sws,1,orange,car,mouth,mouth,car,orange,fem_plain_fem_sws,critical,2/2/2017,10:40,right,true,4476,3,2_1_1_0,word_3_word_2_word_1,different,orange,English_Speech,preschool,megan,,,,,,,,,female
iAiXc,17,5,fem_plain,fem_sws,2,orange,car,mouth,mouth,car,orange,fem_plain_fem_sws,critical,2/2/2017,10:40,left,true,2502,2,2_1_1_0,word_3_word_2_word_1,different,car,English_Speech,preschool,megan,,,,,,,,,female
iAiXc,17,5,fem_plain,fem_sws,3,orange,car,mouth,mouth,car,orange,fem_plain_fem_sws,critical,2/2/2017,10:40,top_img,true,6098,2,2_1_1_0,word_3_word_2_word_1,different,mouth,English_Speech,preschool,megan,,,,,,,,,female
iAiXc,18,22,fem_plain,fem_sws,1,doctor,dog,bike,doctor,bike,dog,fem_plain_fem_sws,critical,2/2/2017,10:40,top_img,true,5794,1,2_1_2_0,word_3_word_1_word_2,different,doctor,English_Speech,preschool,megan,,,,,,,,,female
iAiXc,18,22,fem_plain,fem_sws,2,doctor,dog,bike,doctor,bike,dog,fem_plain_fem_sws,critical,2/2/2017,10:40,right,true,2339,2,2_1_2_0,word_3_word_1_word_2,different,dog,English_Speech,preschool,megan,,,,,,,,,female
iAiXc,18,22,fem_plain,fem_sws,3,doctor,dog,bike,doctor,bike,dog,fem_plain_fem_sws,critical,2/2/2017,10:40,left,true,1955,2,2_1_2_0,word_3_word_1_word_2,different,bike,English_Speech,preschool,megan,,,,,,,,,female
iAiXc,19,18,fem_plain,fem_sws,1,raspberry,camera,ball,camera,ball,raspberry,fem_plain_fem_sws,critical,2/2/2017,10:40,right,true,7169,2,1_2_2_0,word_3_word_1_word_2,different,raspberry,English_Speech,preschool,megan,,,,,,,,,female
iAiXc,19,18,fem_plain,fem_sws,2,raspberry,camera,ball,camera,ball,raspberry,fem_plain_fem_sws,critical,2/2/2017,10:40,top_img,true,2553,2,1_2_2_0,word_3_word_1_word_2,different,camera,English_Speech,preschool,megan,,,,,,,,,female
iAiXc,19,18,fem_plain,fem_sws,3,raspberry,camera,ball,camera,ball,raspberry,fem_plain_fem_sws,critical,2/2/2017,10:40,left,true,7207,6,1_2_2_0,word_3_word_1_word_2,different,ball,English_Speech,preschool,megan,,,,,,,,,female
iAiXc,20,3,fem_plain,fem_sws,1,nose,telephone,trousers,nose,trousers,telephone,fem_plain_fem_sws,critical,2/2/2017,10:40,top_img,true,6609,2,2_1_1_0,word_2_word_1_word_3,different,nose,English_Speech,preschool,megan,,,,,,,,,female
iAiXc,20,3,fem_plain,fem_sws,2,nose,telephone,trousers,nose,trousers,telephone,fem_plain_fem_sws,critical,2/2/2017,10:40,right,true,8005,2,2_1_1_0,word_2_word_1_word_3,different,telephone,English_Speech,preschool,megan,,,,,,,,,female
iAiXc,20,3,fem_plain,fem_sws,3,nose,telephone,trousers,nose,trousers,telephone,fem_plain_fem_sws,critical,2/2/2017,10:40,left,true,11472,2,2_1_1_0,word_2_word_1_word_3,different,trousers,English_Speech,preschool,megan,,,,,,,,,female
iAiXc,21,8,fem_plain,fem_sws,1,wellyboots,ear,ear,wellyboots,fire_engine,ear,fem_plain_fem_sws,critical,2/2/2017,10:40,top_img,true,3733,2,2_1_1_1,word_1_word_2_word_3,near,wellyboots,English_Speech,preschool,megan,,,,,,,,,female
iAiXc,21,8,fem_plain,fem_sws,2,wellyboots,ear,ear,wellyboots,fire_engine,ear,fem_plain_fem_sws,critical,2/2/2017,10:40,right,true,2263,2,2_1_1_1,word_1_word_2_word_3,near,ear,English_Speech,preschool,megan,,,,,,,,,female
iAiXc,21,8,fem_plain,fem_sws,3,wellyboots,ear,ear,wellyboots,fire_engine,ear,fem_plain_fem_sws,critical,2/2/2017,10:40,right,true,2775,1,2_1_1_1,word_1_word_2_word_3,near,ear,English_Speech,preschool,megan,,,,,,,,,female
iAiXc,22,21,fem_plain,fem_sws,1,sheep,eye,frog,sheep,frog,eye,fem_plain_fem_sws,critical,2/2/2017,10:40,top_img,true,2471,2,2_1_1_0,word_2_word_1_word_3,different,sheep,English_Speech,preschool,megan,,,,,,,,,female
iAiXc,22,21,fem_plain,fem_sws,2,sheep,eye,frog,sheep,frog,eye,fem_plain_fem_sws,critical,2/2/2017,10:40,right,true,4214,1,2_1_1_0,word_2_word_1_word_3,different,eye,English_Speech,preschool,megan,,,,,,,,,female
iAiXc,22,21,fem_plain,fem_sws,3,sheep,eye,frog,sheep,frog,eye,fem_plain_fem_sws,critical,2/2/2017,10:40,left,true,2071,1,2_1_1_0,word_2_word_1_word_3,different,frog,English_Speech,preschool,megan,,,,,,,,,female
iAiXc,23,10,fem_plain,fem_sws,1,pig,tshirt,pig,pig,tshirt,hat,fem_plain_fem_sws,critical,2/2/2017,10:40,top_img,true,3112,1,1_2_1_1,word_1_word_2_word_3,far,pig,English_Speech,preschool,megan,,,,,,,,,female
iAiXc,23,10,fem_plain,fem_sws,2,pig,tshirt,pig,pig,tshirt,hat,fem_plain_fem_sws,critical,2/2/2017,10:40,left,true,5479,1,1_2_1_1,word_1_word_2_word_3,far,tshirt,English_Speech,preschool,megan,,,,,,,,,female
iAiXc,23,10,fem_plain,fem_sws,3,pig,tshirt,pig,pig,tshirt,hat,fem_plain_fem_sws,critical,2/2/2017,10:40,top_img,true,4370,6,1_2_1_1,word_1_word_2_word_3,far,pig,English_Speech,preschool,megan,,,,,,,,,female
iAiXc,24,4,fem_plain,fem_sws,1,strawberry,coat,coat,flower,coat,strawberry,fem_plain_fem_sws,critical,2/2/2017,10:40,right,true,4877,2,1_2_2_1,word_3_word_1_word_2,near,strawberry,English_Speech,preschool,megan,,,,,,,,,female
iAiXc,24,4,fem_plain,fem_sws,2,strawberry,coat,coat,flower,coat,strawberry,fem_plain_fem_sws,critical,2/2/2017,10:40,left,true,2561,2,1_2_2_1,word_3_word_1_word_2,near,coat,English_Speech,preschool,megan,,,,,,,,,female
iAiXc,24,4,fem_plain,fem_sws,3,strawberry,coat,coat,flower,coat,strawberry,fem_plain_fem_sws,critical,2/2/2017,10:40,top_img,false,1863,2,1_2_2_1,word_3_word_1_word_2,near,flower,English_Speech,preschool,megan,,,,,,,,,female
iAiXc,25,12,fem_plain,fem_sws,1,yoghurt,gloves,yoghurt,gloves,yoghurt,foot,fem_plain_fem_sws,critical,2/2/2017,10:40,left,true,3025,2,1_2_1_1,word_3_word_2_word_1,far,yoghurt,English_Speech,preschool,megan,,,,,,,,,female
iAiXc,25,12,fem_plain,fem_sws,2,yoghurt,gloves,yoghurt,gloves,yoghurt,foot,fem_plain_fem_sws,critical,2/2/2017,10:40,top_img,true,3027,2,1_2_1_1,word_3_word_2_word_1,far,gloves,English_Speech,preschool,megan,,,,,,,,,female
iAiXc,25,12,fem_plain,fem_sws,3,yoghurt,gloves,yoghurt,gloves,yoghurt,foot,fem_plain_fem_sws,critical,2/2/2017,10:40,left,true,3329,2,1_2_1_1,word_3_word_2_word_1,far,yoghurt,English_Speech,preschool,megan,,,,,,,,,female
