subject_id,trial_number,trial_id,plain,sws,instruction_number,sound1_item,sound2_item,sound3_item,top_image,left_image,right_image,sound_gender,trial_type,date_stamp,time_stamp,side_chosen,accuracy,rt,play_counter,order,pic_position,distance,chosen_pic,test_lang,testing_loc,tester,date_of_birth,ethnicity,native_lang,other_langs,parental_occ,dev_info,birth_order,num_siblings,gender
IJkI1,1,0,fem_plain,mal_sws,1,fireman,glasses,glasses,glasses,tractor,fireman,fem_plain_mal_sws,training,1/11/2017,10:52,right,true,4269,6,2_1_1_1,word_2_word_3_word_1,near,fireman,English_Speech,preschool,katy,,,,,,,,,male
IJkI1,1,0,fem_plain,mal_sws,2,fireman,glasses,glasses,glasses,tractor,fireman,fem_plain_mal_sws,training,1/11/2017,10:52,top_img,true,2761,2,2_1_1_1,word_2_word_3_word_1,near,glasses,English_Speech,preschool,katy,,,,,,,,,male
IJkI1,1,0,fem_plain,mal_sws,3,fireman,glasses,glasses,glasses,tractor,fireman,fem_plain_mal_sws,training,1/11/2017,10:52,top_img,true,4205,6,2_1_1_1,word_2_word_3_word_1,near,glasses,English_Speech,preschool,katy,,,,,,,,,male
IJkI1,2,17,fem_plain,mal_sws,1,cake,ambulance,ambulance,cake,ambulance,hand,fem_plain_mal_sws,critical,1/11/2017,10:52,top_img,true,2732,4,2_1_1_1,word_1_word_2_word_3,near,cake,English_Speech,preschool,katy,,,,,,,,,male
IJkI1,2,17,fem_plain,mal_sws,2,cake,ambulance,ambulance,cake,ambulance,hand,fem_plain_mal_sws,critical,1/11/2017,10:52,left,true,2315,2,2_1_1_1,word_1_word_2_word_3,near,ambulance,English_Speech,preschool,katy,,,,,,,,,male
IJkI1,2,17,fem_plain,mal_sws,3,cake,ambulance,ambulance,cake,ambulance,hand,fem_plain_mal_sws,critical,1/11/2017,10:52,right,false,7131,8,2_1_1_1,word_1_word_2_word_3,near,hand,English_Speech,preschool,katy,,,,,,,,,male
IJkI1,3,15,fem_plain,mal_sws,1,beans,pencil,slide,beans,slide,pencil,fem_plain_mal_sws,critical,1/11/2017,10:52,top_img,true,3045,6,1_2_2_0,word_3_word_1_word_2,different,beans,English_Speech,preschool,katy,,,,,,,,,male
IJkI1,3,15,fem_plain,mal_sws,2,beans,pencil,slide,beans,slide,pencil,fem_plain_mal_sws,critical,1/11/2017,10:52,right,true,2366,2,1_2_2_0,word_3_word_1_word_2,different,pencil,English_Speech,preschool,katy,,,,,,,,,male
IJkI1,3,15,fem_plain,mal_sws,3,beans,pencil,slide,beans,slide,pencil,fem_plain_mal_sws,critical,1/11/2017,10:52,left,true,4419,2,1_2_2_0,word_3_word_1_word_2,different,slide,English_Speech,preschool,katy,,,,,,,,,male
IJkI1,4,1,fem_plain,mal_sws,1,baby,spoon,baby,train,baby,spoon,fem_plain_mal_sws,critical,1/11/2017,10:52,left,true,5834,4,1_2_1_1,word_3_word_2_word_1,far,baby,English_Speech,preschool,katy,,,,,,,,,male
IJkI1,4,1,fem_plain,mal_sws,2,baby,spoon,baby,train,baby,spoon,fem_plain_mal_sws,critical,1/11/2017,10:52,right,true,3732,2,1_2_1_1,word_3_word_2_word_1,far,spoon,English_Speech,preschool,katy,,,,,,,,,male
IJkI1,4,1,fem_plain,mal_sws,3,baby,spoon,baby,train,baby,spoon,fem_plain_mal_sws,critical,1/11/2017,10:52,left,true,5228,4,1_2_1_1,word_3_word_2_word_1,far,baby,English_Speech,preschool,katy,,,,,,,,,male
IJkI1,5,8,fem_plain,mal_sws,1,wellyboots,fire_engine,ear,fire_engine,ear,wellyboots,fem_plain_mal_sws,critical,1/11/2017,10:52,right,true,4138,2,1_2_2_0,word_2_word_3_word_1,different,wellyboots,English_Speech,preschool,katy,,,,,,,,,male
IJkI1,5,8,fem_plain,mal_sws,2,wellyboots,fire_engine,ear,fire_engine,ear,wellyboots,fem_plain_mal_sws,critical,1/11/2017,10:52,top_img,true,3608,4,1_2_2_0,word_2_word_3_word_1,different,fire_engine,English_Speech,preschool,katy,,,,,,,,,male
IJkI1,5,8,fem_plain,mal_sws,3,wellyboots,fire_engine,ear,fire_engine,ear,wellyboots,fem_plain_mal_sws,critical,1/11/2017,10:52,left,true,4580,2,1_2_2_0,word_2_word_3_word_1,different,ear,English_Speech,preschool,katy,,,,,,,,,male
IJkI1,6,22,fem_plain,mal_sws,1,bike,doctor,dog,doctor,bike,dog,fem_plain_mal_sws,critical,1/11/2017,10:52,left,true,4373,2,1_2_2_0,word_3_word_1_word_2,different,bike,English_Speech,preschool,katy,,,,,,,,,male
IJkI1,6,22,fem_plain,mal_sws,2,bike,doctor,dog,doctor,bike,dog,fem_plain_mal_sws,critical,1/11/2017,10:52,top_img,true,2555,2,1_2_2_0,word_3_word_1_word_2,different,doctor,English_Speech,preschool,katy,,,,,,,,,male
IJkI1,6,22,fem_plain,mal_sws,3,bike,doctor,dog,doctor,bike,dog,fem_plain_mal_sws,critical,1/11/2017,10:52,right,true,1954,2,1_2_2_0,word_3_word_1_word_2,different,dog,English_Speech,preschool,katy,,,,,,,,,male
IJkI1,7,9,fem_plain,mal_sws,1,pizza,window,grapes,grapes,pizza,window,fem_plain_mal_sws,critical,1/11/2017,10:52,left,true,2737,2,2_1_2_0,word_3_word_1_word_2,different,pizza,English_Speech,preschool,katy,,,,,,,,,male
IJkI1,7,9,fem_plain,mal_sws,2,pizza,window,grapes,grapes,pizza,window,fem_plain_mal_sws,critical,1/11/2017,10:52,right,true,2512,2,2_1_2_0,word_3_word_1_word_2,different,window,English_Speech,preschool,katy,,,,,,,,,male
IJkI1,7,9,fem_plain,mal_sws,3,pizza,window,grapes,grapes,pizza,window,fem_plain_mal_sws,critical,1/11/2017,10:52,top_img,true,6916,4,2_1_2_0,word_3_word_1_word_2,different,grapes,English_Speech,preschool,katy,,,,,,,,,male
IJkI1,8,7,fem_plain,mal_sws,1,cat,lolly,cat,lolly,cat,horse,fem_plain_mal_sws,critical,1/11/2017,10:52,left,true,3699,1,1_2_1_1,word_1_word_3_word_2,far,cat,English_Speech,preschool,katy,,,,,,,,,male
IJkI1,8,7,fem_plain,mal_sws,2,cat,lolly,cat,lolly,cat,horse,fem_plain_mal_sws,critical,1/11/2017,10:52,top_img,true,3403,2,1_2_1_1,word_1_word_3_word_2,far,lolly,English_Speech,preschool,katy,,,,,,,,,male
IJkI1,8,7,fem_plain,mal_sws,3,cat,lolly,cat,lolly,cat,horse,fem_plain_mal_sws,critical,1/11/2017,10:52,right,false,7639,2,1_2_1_1,word_1_word_3_word_2,far,horse,English_Speech,preschool,katy,,,,,,,,,male
IJkI1,9,21,fem_plain,mal_sws,1,frog,eye,frog,sheep,frog,eye,fem_plain_mal_sws,critical,1/11/2017,10:52,left,true,3578,2,2_1_2_1,word_2_word_1_word_3,far,frog,English_Speech,preschool,katy,,,,,,,,,male
IJkI1,9,21,fem_plain,mal_sws,2,frog,eye,frog,sheep,frog,eye,fem_plain_mal_sws,critical,1/11/2017,10:52,right,true,3721,2,2_1_2_1,word_2_word_1_word_3,far,eye,English_Speech,preschool,katy,,,,,,,,,male
IJkI1,9,21,fem_plain,mal_sws,3,frog,eye,frog,sheep,frog,eye,fem_plain_mal_sws,critical,1/11/2017,10:52,left,true,5658,6,2_1_2_1,word_2_word_1_word_3,far,frog,English_Speech,preschool,katy,,,,,,,,,male
IJkI1,10,13,fem_plain,mal_sws,1,toothbrush,airplane,airplane,toothbrush,bread,airplane,fem_plain_mal_sws,critical,1/11/2017,10:52,top_img,true,2798,2,2_1_1_1,word_1_word_3_word_2,near,toothbrush,English_Speech,preschool,katy,,,,,,,,,male
IJkI1,10,13,fem_plain,mal_sws,2,toothbrush,airplane,airplane,toothbrush,bread,airplane,fem_plain_mal_sws,critical,1/11/2017,10:52,right,true,3745,4,2_1_1_1,word_1_word_3_word_2,near,airplane,English_Speech,preschool,katy,,,,,,,,,male
IJkI1,10,13,fem_plain,mal_sws,3,toothbrush,airplane,airplane,toothbrush,bread,airplane,fem_plain_mal_sws,critical,1/11/2017,10:52,left,false,4411,3,2_1_1_1,word_1_word_3_word_2,near,bread,English_Speech,preschool,katy,,,,,,,,,male
IJkI1,11,23,fem_plain,mal_sws,1,bath,teddy_bear,table,bath,teddy_bear,table,fem_plain_mal_sws,critical,1/11/2017,10:52,top_img,true,6609,2,2_1_1_0,word_1_word_2_word_3,different,bath,English_Speech,preschool,katy,,,,,,,,,male
IJkI1,11,23,fem_plain,mal_sws,2,bath,teddy_bear,table,bath,teddy_bear,table,fem_plain_mal_sws,critical,1/11/2017,10:52,left,true,3726,1,2_1_1_0,word_1_word_2_word_3,different,teddy_bear,English_Speech,preschool,katy,,,,,,,,,male
IJkI1,11,23,fem_plain,mal_sws,3,bath,teddy_bear,table,bath,teddy_bear,table,fem_plain_mal_sws,critical,1/11/2017,10:52,right,true,2559,2,2_1_1_0,word_1_word_2_word_3,different,table,English_Speech,preschool,katy,,,,,,,,,male
IJkI1,12,14,fem_plain,mal_sws,1,shoes,door,cheese,door,cheese,shoes,fem_plain_mal_sws,critical,1/11/2017,10:52,right,true,2666,1,2_1_2_0,word_3_word_1_word_2,different,shoes,English_Speech,preschool,katy,,,,,,,,,male
IJkI1,12,14,fem_plain,mal_sws,2,shoes,door,cheese,door,cheese,shoes,fem_plain_mal_sws,critical,1/11/2017,10:52,top_img,true,2457,1,2_1_2_0,word_3_word_1_word_2,different,door,English_Speech,preschool,katy,,,,,,,,,male
IJkI1,12,14,fem_plain,mal_sws,3,shoes,door,cheese,door,cheese,shoes,fem_plain_mal_sws,critical,1/11/2017,10:52,left,true,2370,1,2_1_2_0,word_3_word_1_word_2,different,cheese,English_Speech,preschool,katy,,,,,,,,,male
IJkI1,13,2,fem_plain,mal_sws,1,fork,chicken,bed,chicken,bed,fork,fem_plain_mal_sws,critical,1/11/2017,10:52,right,true,3709,2,2_1_1_0,word_2_word_1_word_3,different,fork,English_Speech,preschool,katy,,,,,,,,,male
IJkI1,13,2,fem_plain,mal_sws,2,fork,chicken,bed,chicken,bed,fork,fem_plain_mal_sws,critical,1/11/2017,10:52,top_img,true,3012,1,2_1_1_0,word_2_word_1_word_3,different,chicken,English_Speech,preschool,katy,,,,,,,,,male
IJkI1,13,2,fem_plain,mal_sws,3,fork,chicken,bed,chicken,bed,fork,fem_plain_mal_sws,critical,1/11/2017,10:52,left,true,2555,2,2_1_1_0,word_2_word_1_word_3,different,bed,English_Speech,preschool,katy,,,,,,,,,male
IJkI1,14,19,fem_plain,mal_sws,1,santa,tree,tree,santa,tree,building_blocks,fem_plain_mal_sws,critical,1/11/2017,10:52,top_img,true,19955,1,1_2_2_1,word_1_word_3_word_2,near,santa,English_Speech,preschool,katy,,,,,,,,,male
IJkI1,14,19,fem_plain,mal_sws,2,santa,tree,tree,santa,tree,building_blocks,fem_plain_mal_sws,critical,1/11/2017,10:52,left,true,5295,1,1_2_2_1,word_1_word_3_word_2,near,tree,English_Speech,preschool,katy,,,,,,,,,male
IJkI1,14,19,fem_plain,mal_sws,3,santa,tree,tree,santa,tree,building_blocks,fem_plain_mal_sws,critical,1/11/2017,10:52,left,true,6989,4,1_2_2_1,word_1_word_3_word_2,near,tree,English_Speech,preschool,katy,,,,,,,,,male
IJkI1,15,24,fem_plain,mal_sws,1,socks,sink,sink,socks,fish,sink,fem_plain_mal_sws,critical,1/11/2017,10:52,top_img,true,5003,2,1_2_2_1,word_3_word_2_word_1,near,socks,English_Speech,preschool,katy,,,,,,,,,male
IJkI1,15,24,fem_plain,mal_sws,2,socks,sink,sink,socks,fish,sink,fem_plain_mal_sws,critical,1/11/2017,10:52,right,true,3573,1,1_2_2_1,word_3_word_2_word_1,near,sink,English_Speech,preschool,katy,,,,,,,,,male
IJkI1,15,24,fem_plain,mal_sws,3,socks,sink,sink,socks,fish,sink,fem_plain_mal_sws,critical,1/11/2017,10:52,left,false,19,4,1_2_2_1,word_3_word_2_word_1,near,fish,English_Speech,preschool,katy,,,,,,,,,male
IJkI1,16,18,fem_plain,mal_sws,1,raspberry,ball,camera,camera,ball,raspberry,fem_plain_mal_sws,critical,1/11/2017,10:52,right,true,5570,2,2_1_1_0,word_3_word_1_word_2,different,raspberry,English_Speech,preschool,katy,,,,,,,,,male
IJkI1,16,18,fem_plain,mal_sws,2,raspberry,ball,camera,camera,ball,raspberry,fem_plain_mal_sws,critical,1/11/2017,10:52,left,true,3842,1,2_1_1_0,word_3_word_1_word_2,different,ball,English_Speech,preschool,katy,,,,,,,,,male
IJkI1,16,18,fem_plain,mal_sws,3,raspberry,ball,camera,camera,ball,raspberry,fem_plain_mal_sws,critical,1/11/2017,10:52,top_img,true,4719,2,2_1_1_0,word_3_word_1_word_2,different,camera,English_Speech,preschool,katy,,,,,,,,,male
IJkI1,17,16,fem_plain,mal_sws,1,banana,chair,chair,chair,paintbrush,banana,fem_plain_mal_sws,critical,1/11/2017,10:52,right,true,3817,2,1_2_2_1,word_3_word_1_word_2,near,banana,English_Speech,preschool,katy,,,,,,,,,male
IJkI1,17,16,fem_plain,mal_sws,2,banana,chair,chair,chair,paintbrush,banana,fem_plain_mal_sws,critical,1/11/2017,10:52,top_img,true,2586,1,1_2_2_1,word_3_word_1_word_2,near,chair,English_Speech,preschool,katy,,,,,,,,,male
IJkI1,17,16,fem_plain,mal_sws,3,banana,chair,chair,chair,paintbrush,banana,fem_plain_mal_sws,critical,1/11/2017,10:52,left,false,2622,2,1_2_2_1,word_3_word_1_word_2,near,paintbrush,English_Speech,preschool,katy,,,,,,,,,male
IJkI1,18,6,fem_plain,mal_sws,1,carrot,peas,bird,bird,carrot,peas,fem_plain_mal_sws,critical,1/11/2017,10:52,left,true,3001,2,2_1_2_0,word_1_word_3_word_2,different,carrot,English_Speech,preschool,katy,,,,,,,,,male
IJkI1,18,6,fem_plain,mal_sws,2,carrot,peas,bird,bird,carrot,peas,fem_plain_mal_sws,critical,1/11/2017,10:52,right,true,3801,2,2_1_2_0,word_1_word_3_word_2,different,peas,English_Speech,preschool,katy,,,,,,,,,male
IJkI1,18,6,fem_plain,mal_sws,3,carrot,peas,bird,bird,carrot,peas,fem_plain_mal_sws,critical,1/11/2017,10:52,top_img,true,2137,1,2_1_2_0,word_1_word_3_word_2,different,bird,English_Speech,preschool,katy,,,,,,,,,male
IJkI1,19,10,fem_plain,mal_sws,1,tshirt,pig,hat,pig,tshirt,hat,fem_plain_mal_sws,critical,1/11/2017,10:52,left,true,4119,2,2_1_1_0,word_1_word_2_word_3,different,tshirt,English_Speech,preschool,katy,,,,,,,,,male
IJkI1,19,10,fem_plain,mal_sws,2,tshirt,pig,hat,pig,tshirt,hat,fem_plain_mal_sws,critical,1/11/2017,10:52,top_img,true,2113,3,2_1_1_0,word_1_word_2_word_3,different,pig,English_Speech,preschool,katy,,,,,,,,,male
IJkI1,19,10,fem_plain,mal_sws,3,tshirt,pig,hat,pig,tshirt,hat,fem_plain_mal_sws,critical,1/11/2017,10:52,right,true,2317,2,2_1_1_0,word_1_word_2_word_3,different,hat,English_Speech,preschool,katy,,,,,,,,,male
IJkI1,20,20,fem_plain,mal_sws,1,rabbit,apple,rabbit,apple,rabbit,jumper,fem_plain_mal_sws,critical,1/11/2017,10:52,left,true,3322,3,1_2_1_1,word_3_word_2_word_1,far,rabbit,English_Speech,preschool,katy,,,,,,,,,male
IJkI1,20,20,fem_plain,mal_sws,2,rabbit,apple,rabbit,apple,rabbit,jumper,fem_plain_mal_sws,critical,1/11/2017,10:52,top_img,true,3364,4,1_2_1_1,word_3_word_2_word_1,far,apple,English_Speech,preschool,katy,,,,,,,,,male
IJkI1,20,20,fem_plain,mal_sws,3,rabbit,apple,rabbit,apple,rabbit,jumper,fem_plain_mal_sws,critical,1/11/2017,10:52,right,false,1257,2,1_2_1_1,word_3_word_2_word_1,far,jumper,English_Speech,preschool,katy,,,,,,,,,male
IJkI1,21,12,fem_plain,mal_sws,1,foot,yoghurt,gloves,foot,yoghurt,gloves,fem_plain_mal_sws,critical,1/11/2017,10:52,top_img,true,3491,2,2_1_1_0,word_1_word_2_word_3,different,foot,English_Speech,preschool,katy,,,,,,,,,male
IJkI1,21,12,fem_plain,mal_sws,2,foot,yoghurt,gloves,foot,yoghurt,gloves,fem_plain_mal_sws,critical,1/11/2017,10:52,left,true,4871,2,2_1_1_0,word_1_word_2_word_3,different,yoghurt,English_Speech,preschool,katy,,,,,,,,,male
IJkI1,21,12,fem_plain,mal_sws,3,foot,yoghurt,gloves,foot,yoghurt,gloves,fem_plain_mal_sws,critical,1/11/2017,10:52,right,true,2426,2,2_1_1_0,word_1_word_2_word_3,different,gloves,English_Speech,preschool,katy,,,,,,,,,male
IJkI1,22,3,fem_plain,mal_sws,1,nose,telephone,trousers,trousers,telephone,nose,fem_plain_mal_sws,critical,1/11/2017,10:52,right,true,8473,4,2_1_1_0,word_1_word_3_word_2,different,nose,English_Speech,preschool,katy,,,,,,,,,male
IJkI1,22,3,fem_plain,mal_sws,2,nose,telephone,trousers,trousers,telephone,nose,fem_plain_mal_sws,critical,1/11/2017,10:52,left,true,8316,2,2_1_1_0,word_1_word_3_word_2,different,telephone,English_Speech,preschool,katy,,,,,,,,,male
IJkI1,22,3,fem_plain,mal_sws,3,nose,telephone,trousers,trousers,telephone,nose,fem_plain_mal_sws,critical,1/11/2017,10:52,top_img,true,4696,2,2_1_1_0,word_1_word_3_word_2,different,trousers,English_Speech,preschool,katy,,,,,,,,,male
IJkI1,23,4,fem_plain,mal_sws,1,coat,flower,coat,coat,flower,strawberry,fem_plain_mal_sws,critical,1/11/2017,10:52,top_img,true,3991,2,2_1_2_1,word_1_word_3_word_2,far,coat,English_Speech,preschool,katy,,,,,,,,,male
IJkI1,23,4,fem_plain,mal_sws,2,coat,flower,coat,coat,flower,strawberry,fem_plain_mal_sws,critical,1/11/2017,10:52,left,true,3826,1,2_1_2_1,word_1_word_3_word_2,far,flower,English_Speech,preschool,katy,,,,,,,,,male
IJkI1,23,4,fem_plain,mal_sws,3,coat,flower,coat,coat,flower,strawberry,fem_plain_mal_sws,critical,1/11/2017,10:52,right,false,2068,2,2_1_2_1,word_1_word_3_word_2,far,strawberry,English_Speech,preschool,katy,,,,,,,,,male
IJkI1,24,5,fem_plain,mal_sws,1,mouth,car,mouth,car,orange,mouth,fem_plain_mal_sws,critical,1/11/2017,10:52,right,true,3139,3,2_1_2_1,word_2_word_1_word_3,far,mouth,English_Speech,preschool,katy,,,,,,,,,male
IJkI1,24,5,fem_plain,mal_sws,2,mouth,car,mouth,car,orange,mouth,fem_plain_mal_sws,critical,1/11/2017,10:52,top_img,true,6965,2,2_1_2_1,word_2_word_1_word_3,far,car,English_Speech,preschool,katy,,,,,,,,,male
IJkI1,24,5,fem_plain,mal_sws,3,mouth,car,mouth,car,orange,mouth,fem_plain_mal_sws,critical,1/11/2017,10:52,top_img,false,8143,3,2_1_2_1,word_2_word_1_word_3,far,car,English_Speech,preschool,katy,,,,,,,,,male
IJkI1,25,11,fem_plain,mal_sws,1,cow,book,cow,book,cow,lorry,fem_plain_mal_sws,critical,1/11/2017,10:52,left,true,5460,2,1_2_1_1,word_1_word_3_word_2,far,cow,English_Speech,preschool,katy,,,,,,,,,male
IJkI1,25,11,fem_plain,mal_sws,2,cow,book,cow,book,cow,lorry,fem_plain_mal_sws,critical,1/11/2017,10:52,top_img,true,3954,1,1_2_1_1,word_1_word_3_word_2,far,book,English_Speech,preschool,katy,,,,,,,,,male
IJkI1,25,11,fem_plain,mal_sws,3,cow,book,cow,book,cow,lorry,fem_plain_mal_sws,critical,1/11/2017,10:52,left,true,2479,3,1_2_1_1,word_1_word_3_word_2,far,cow,English_Speech,preschool,katy,,,,,,,,,male
