subject_id,trial_number,trial_id,plain,sws,instruction_number,sound1_item,sound2_item,sound3_item,top_image,left_image,right_image,sound_gender,trial_type,date_stamp,time_stamp,side_chosen,accuracy,rt,play_counter,order,pic_position,distance,chosen_pic,test_lang,testing_loc,tester,date_of_birth,ethnicity,native_lang,other_langs,parental_occ,dev_info,birth_order,num_siblings,gender
L8py2,1,0,fem_plain,mal_sws,1,tractor,glasses,fireman,fireman,tractor,glasses,fem_plain_mal_sws,training,2/2/2017,10:21,left,true,4017,2,1_2_2_0,word_1_word_3_word_2,different,tractor,English_Speech,preschool,megan,,,,,,,,,male
L8py2,1,0,fem_plain,mal_sws,2,tractor,glasses,fireman,fireman,tractor,glasses,fem_plain_mal_sws,training,2/2/2017,10:21,right,true,2454,2,1_2_2_0,word_1_word_3_word_2,different,glasses,English_Speech,preschool,megan,,,,,,,,,male
L8py2,1,0,fem_plain,mal_sws,3,tractor,glasses,fireman,fireman,tractor,glasses,fem_plain_mal_sws,training,2/2/2017,10:21,top_img,true,6571,6,1_2_2_0,word_1_word_3_word_2,different,fireman,English_Speech,preschool,megan,,,,,,,,,male
L8py2,2,11,fem_plain,mal_sws,1,book,cow,book,book,lorry,cow,fem_plain_mal_sws,critical,2/2/2017,10:21,top_img,true,2987,2,1_2_1_1,word_1_word_2_word_3,far,book,English_Speech,preschool,megan,,,,,,,,,male
L8py2,2,11,fem_plain,mal_sws,2,book,cow,book,book,lorry,cow,fem_plain_mal_sws,critical,2/2/2017,10:21,right,true,2980,1,1_2_1_1,word_1_word_2_word_3,far,cow,English_Speech,preschool,megan,,,,,,,,,male
L8py2,2,11,fem_plain,mal_sws,3,book,cow,book,book,lorry,cow,fem_plain_mal_sws,critical,2/2/2017,10:21,top_img,true,2621,5,1_2_1_1,word_1_word_2_word_3,far,book,English_Speech,preschool,megan,,,,,,,,,male
L8py2,3,13,fem_plain,mal_sws,1,airplane,toothbrush,airplane,bread,toothbrush,airplane,fem_plain_mal_sws,critical,2/2/2017,10:21,right,true,2521,1,1_2_1_1,word_3_word_1_word_2,far,airplane,English_Speech,preschool,megan,,,,,,,,,male
L8py2,3,13,fem_plain,mal_sws,2,airplane,toothbrush,airplane,bread,toothbrush,airplane,fem_plain_mal_sws,critical,2/2/2017,10:21,left,true,2297,1,1_2_1_1,word_3_word_1_word_2,far,toothbrush,English_Speech,preschool,megan,,,,,,,,,male
L8py2,3,13,fem_plain,mal_sws,3,airplane,toothbrush,airplane,bread,toothbrush,airplane,fem_plain_mal_sws,critical,2/2/2017,10:21,right,true,12573,2,1_2_1_1,word_3_word_1_word_2,far,airplane,English_Speech,preschool,megan,,,,,,,,,male
L8py2,4,1,fem_plain,mal_sws,1,spoon,train,spoon,train,spoon,baby,fem_plain_mal_sws,critical,2/2/2017,10:21,left,true,2377,2,2_1_2_1,word_3_word_1_word_2,far,spoon,English_Speech,preschool,megan,,,,,,,,,male
L8py2,4,1,fem_plain,mal_sws,2,spoon,train,spoon,train,spoon,baby,fem_plain_mal_sws,critical,2/2/2017,10:21,top_img,true,2212,1,2_1_2_1,word_3_word_1_word_2,far,train,English_Speech,preschool,megan,,,,,,,,,male
L8py2,4,1,fem_plain,mal_sws,3,spoon,train,spoon,train,spoon,baby,fem_plain_mal_sws,critical,2/2/2017,10:21,left,true,6871,2,2_1_2_1,word_3_word_1_word_2,far,spoon,English_Speech,preschool,megan,,,,,,,,,male
L8py2,5,3,fem_plain,mal_sws,1,nose,telephone,telephone,nose,telephone,trousers,fem_plain_mal_sws,critical,2/2/2017,10:21,top_img,true,3438,1,1_2_2_1,word_2_word_3_word_1,near,nose,English_Speech,preschool,megan,,,,,,,,,male
L8py2,5,3,fem_plain,mal_sws,2,nose,telephone,telephone,nose,telephone,trousers,fem_plain_mal_sws,critical,2/2/2017,10:21,left,true,2980,1,1_2_2_1,word_2_word_3_word_1,near,telephone,English_Speech,preschool,megan,,,,,,,,,male
L8py2,5,3,fem_plain,mal_sws,3,nose,telephone,telephone,nose,telephone,trousers,fem_plain_mal_sws,critical,2/2/2017,10:21,right,false,8171,2,1_2_2_1,word_2_word_3_word_1,near,trousers,English_Speech,preschool,megan,,,,,,,,,male
L8py2,6,20,fem_plain,mal_sws,1,jumper,apple,apple,apple,jumper,rabbit,fem_plain_mal_sws,critical,2/2/2017,10:21,left,true,2784,1,2_1_1_1,word_3_word_1_word_2,near,jumper,English_Speech,preschool,megan,,,,,,,,,male
L8py2,6,20,fem_plain,mal_sws,2,jumper,apple,apple,apple,jumper,rabbit,fem_plain_mal_sws,critical,2/2/2017,10:21,top_img,true,2591,2,2_1_1_1,word_3_word_1_word_2,near,apple,English_Speech,preschool,megan,,,,,,,,,male
L8py2,6,20,fem_plain,mal_sws,3,jumper,apple,apple,apple,jumper,rabbit,fem_plain_mal_sws,critical,2/2/2017,10:21,right,false,2885,1,2_1_1_1,word_3_word_1_word_2,near,rabbit,English_Speech,preschool,megan,,,,,,,,,male
L8py2,7,10,fem_plain,mal_sws,1,tshirt,pig,hat,tshirt,hat,pig,fem_plain_mal_sws,critical,2/2/2017,10:21,top_img,true,4372,1,2_1_1_0,word_2_word_3_word_1,different,tshirt,English_Speech,preschool,megan,,,,,,,,,male
L8py2,7,10,fem_plain,mal_sws,2,tshirt,pig,hat,tshirt,hat,pig,fem_plain_mal_sws,critical,2/2/2017,10:21,right,true,2428,2,2_1_1_0,word_2_word_3_word_1,different,pig,English_Speech,preschool,megan,,,,,,,,,male
L8py2,7,10,fem_plain,mal_sws,3,tshirt,pig,hat,tshirt,hat,pig,fem_plain_mal_sws,critical,2/2/2017,10:21,left,true,2494,2,2_1_1_0,word_2_word_3_word_1,different,hat,English_Speech,preschool,megan,,,,,,,,,male
L8py2,8,15,fem_plain,mal_sws,1,beans,pencil,beans,beans,pencil,slide,fem_plain_mal_sws,critical,2/2/2017,10:21,top_img,true,2622,2,1_2_1_1,word_3_word_2_word_1,far,beans,English_Speech,preschool,megan,,,,,,,,,male
L8py2,8,15,fem_plain,mal_sws,2,beans,pencil,beans,beans,pencil,slide,fem_plain_mal_sws,critical,2/2/2017,10:21,left,true,2612,1,1_2_1_1,word_3_word_2_word_1,far,pencil,English_Speech,preschool,megan,,,,,,,,,male
L8py2,8,15,fem_plain,mal_sws,3,beans,pencil,beans,beans,pencil,slide,fem_plain_mal_sws,critical,2/2/2017,10:21,right,false,2815,1,1_2_1_1,word_3_word_2_word_1,far,slide,English_Speech,preschool,megan,,,,,,,,,male
L8py2,9,21,fem_plain,mal_sws,1,frog,eye,frog,eye,sheep,frog,fem_plain_mal_sws,critical,2/2/2017,10:21,right,true,3522,2,2_1_2_1,word_3_word_2_word_1,far,frog,English_Speech,preschool,megan,,,,,,,,,male
L8py2,9,21,fem_plain,mal_sws,2,frog,eye,frog,eye,sheep,frog,fem_plain_mal_sws,critical,2/2/2017,10:21,top_img,true,2911,2,2_1_2_1,word_3_word_2_word_1,far,eye,English_Speech,preschool,megan,,,,,,,,,male
L8py2,9,21,fem_plain,mal_sws,3,frog,eye,frog,eye,sheep,frog,fem_plain_mal_sws,critical,2/2/2017,10:21,left,false,2725,2,2_1_2_1,word_3_word_2_word_1,far,sheep,English_Speech,preschool,megan,,,,,,,,,male
L8py2,10,24,fem_plain,mal_sws,1,sink,fish,socks,socks,fish,sink,fem_plain_mal_sws,critical,2/2/2017,10:21,right,true,3530,1,1_2_2_0,word_3_word_2_word_1,different,sink,English_Speech,preschool,megan,,,,,,,,,male
L8py2,10,24,fem_plain,mal_sws,2,sink,fish,socks,socks,fish,sink,fem_plain_mal_sws,critical,2/2/2017,10:21,left,true,2633,1,1_2_2_0,word_3_word_2_word_1,different,fish,English_Speech,preschool,megan,,,,,,,,,male
L8py2,10,24,fem_plain,mal_sws,3,sink,fish,socks,socks,fish,sink,fem_plain_mal_sws,critical,2/2/2017,10:21,top_img,true,9875,2,1_2_2_0,word_3_word_2_word_1,different,socks,English_Speech,preschool,megan,,,,,,,,,male
L8py2,11,22,fem_plain,mal_sws,1,dog,bike,doctor,doctor,dog,bike,fem_plain_mal_sws,critical,2/2/2017,10:21,left,true,3077,2,2_1_2_0,word_3_word_2_word_1,different,dog,English_Speech,preschool,megan,,,,,,,,,male
L8py2,11,22,fem_plain,mal_sws,2,dog,bike,doctor,doctor,dog,bike,fem_plain_mal_sws,critical,2/2/2017,10:21,right,true,2719,2,2_1_2_0,word_3_word_2_word_1,different,bike,English_Speech,preschool,megan,,,,,,,,,male
L8py2,11,22,fem_plain,mal_sws,3,dog,bike,doctor,doctor,dog,bike,fem_plain_mal_sws,critical,2/2/2017,10:21,top_img,true,15602,2,2_1_2_0,word_3_word_2_word_1,different,doctor,English_Speech,preschool,megan,,,,,,,,,male
L8py2,12,5,fem_plain,mal_sws,1,orange,mouth,car,car,orange,mouth,fem_plain_mal_sws,critical,2/2/2017,10:21,left,true,3455,2,2_1_1_0,word_2_word_1_word_3,different,orange,English_Speech,preschool,megan,,,,,,,,,male
L8py2,12,5,fem_plain,mal_sws,2,orange,mouth,car,car,orange,mouth,fem_plain_mal_sws,critical,2/2/2017,10:21,right,true,2552,1,2_1_1_0,word_2_word_1_word_3,different,mouth,English_Speech,preschool,megan,,,,,,,,,male
L8py2,12,5,fem_plain,mal_sws,3,orange,mouth,car,car,orange,mouth,fem_plain_mal_sws,critical,2/2/2017,10:21,top_img,true,7039,2,2_1_1_0,word_2_word_1_word_3,different,car,English_Speech,preschool,megan,,,,,,,,,male
L8py2,13,7,fem_plain,mal_sws,1,cat,lolly,cat,horse,lolly,cat,fem_plain_mal_sws,critical,2/2/2017,10:21,right,true,3969,1,2_1_2_1,word_2_word_1_word_3,far,cat,English_Speech,preschool,megan,,,,,,,,,male
L8py2,13,7,fem_plain,mal_sws,2,cat,lolly,cat,horse,lolly,cat,fem_plain_mal_sws,critical,2/2/2017,10:21,top_img,false,3621,1,2_1_2_1,word_2_word_1_word_3,far,horse,English_Speech,preschool,megan,,,,,,,,,male
L8py2,13,7,fem_plain,mal_sws,3,cat,lolly,cat,horse,lolly,cat,fem_plain_mal_sws,critical,2/2/2017,10:21,left,false,93,2,2_1_2_1,word_2_word_1_word_3,far,lolly,English_Speech,preschool,megan,,,,,,,,,male
L8py2,14,8,fem_plain,mal_sws,1,ear,fire_engine,wellyboots,ear,wellyboots,fire_engine,fem_plain_mal_sws,critical,2/2/2017,10:21,top_img,true,2552,4,2_1_1_0,word_3_word_1_word_2,different,ear,English_Speech,preschool,megan,,,,,,,,,male
L8py2,14,8,fem_plain,mal_sws,2,ear,fire_engine,wellyboots,ear,wellyboots,fire_engine,fem_plain_mal_sws,critical,2/2/2017,10:21,right,true,3229,2,2_1_1_0,word_3_word_1_word_2,different,fire_engine,English_Speech,preschool,megan,,,,,,,,,male
L8py2,14,8,fem_plain,mal_sws,3,ear,fire_engine,wellyboots,ear,wellyboots,fire_engine,fem_plain_mal_sws,critical,2/2/2017,10:21,left,true,3552,2,2_1_1_0,word_3_word_1_word_2,different,wellyboots,English_Speech,preschool,megan,,,,,,,,,male
L8py2,15,4,fem_plain,mal_sws,1,coat,flower,strawberry,flower,strawberry,coat,fem_plain_mal_sws,critical,2/2/2017,10:21,right,true,2838,2,2_1_2_0,word_3_word_2_word_1,different,coat,English_Speech,preschool,megan,,,,,,,,,male
L8py2,15,4,fem_plain,mal_sws,2,coat,flower,strawberry,flower,strawberry,coat,fem_plain_mal_sws,critical,2/2/2017,10:21,top_img,true,2622,1,2_1_2_0,word_3_word_2_word_1,different,flower,English_Speech,preschool,megan,,,,,,,,,male
L8py2,15,4,fem_plain,mal_sws,3,coat,flower,strawberry,flower,strawberry,coat,fem_plain_mal_sws,critical,2/2/2017,10:21,left,true,5551,2,2_1_2_0,word_3_word_2_word_1,different,strawberry,English_Speech,preschool,megan,,,,,,,,,male
L8py2,16,9,fem_plain,mal_sws,1,pizza,window,grapes,window,pizza,grapes,fem_plain_mal_sws,critical,2/2/2017,10:21,left,true,3120,2,2_1_1_0,word_2_word_1_word_3,different,pizza,English_Speech,preschool,megan,,,,,,,,,male
L8py2,16,9,fem_plain,mal_sws,2,pizza,window,grapes,window,pizza,grapes,fem_plain_mal_sws,critical,2/2/2017,10:21,top_img,true,2223,4,2_1_1_0,word_2_word_1_word_3,different,window,English_Speech,preschool,megan,,,,,,,,,male
L8py2,16,9,fem_plain,mal_sws,3,pizza,window,grapes,window,pizza,grapes,fem_plain_mal_sws,critical,2/2/2017,10:21,right,true,4301,2,2_1_1_0,word_2_word_1_word_3,different,grapes,English_Speech,preschool,megan,,,,,,,,,male
L8py2,17,6,fem_plain,mal_sws,1,bird,peas,carrot,carrot,peas,bird,fem_plain_mal_sws,critical,2/2/2017,10:21,right,true,2892,3,1_2_2_0,word_3_word_2_word_1,different,bird,English_Speech,preschool,megan,,,,,,,,,male
L8py2,17,6,fem_plain,mal_sws,2,bird,peas,carrot,carrot,peas,bird,fem_plain_mal_sws,critical,2/2/2017,10:21,left,true,2584,1,1_2_2_0,word_3_word_2_word_1,different,peas,English_Speech,preschool,megan,,,,,,,,,male
L8py2,17,6,fem_plain,mal_sws,3,bird,peas,carrot,carrot,peas,bird,fem_plain_mal_sws,critical,2/2/2017,10:21,top_img,true,3512,2,1_2_2_0,word_3_word_2_word_1,different,carrot,English_Speech,preschool,megan,,,,,,,,,male
L8py2,18,12,fem_plain,mal_sws,1,gloves,foot,foot,foot,yoghurt,gloves,fem_plain_mal_sws,critical,2/2/2017,10:21,right,true,3518,2,2_1_1_1,word_1_word_2_word_3,near,gloves,English_Speech,preschool,megan,,,,,,,,,male
L8py2,18,12,fem_plain,mal_sws,2,gloves,foot,foot,foot,yoghurt,gloves,fem_plain_mal_sws,critical,2/2/2017,10:21,top_img,true,2253,1,2_1_1_1,word_1_word_2_word_3,near,foot,English_Speech,preschool,megan,,,,,,,,,male
L8py2,18,12,fem_plain,mal_sws,3,gloves,foot,foot,foot,yoghurt,gloves,fem_plain_mal_sws,critical,2/2/2017,10:21,left,false,2069,1,2_1_1_1,word_1_word_2_word_3,near,yoghurt,English_Speech,preschool,megan,,,,,,,,,male
L8py2,19,14,fem_plain,mal_sws,1,door,cheese,cheese,cheese,shoes,door,fem_plain_mal_sws,critical,2/2/2017,10:21,right,true,2604,2,1_2_2_1,word_1_word_2_word_3,near,door,English_Speech,preschool,megan,,,,,,,,,male
L8py2,19,14,fem_plain,mal_sws,2,door,cheese,cheese,cheese,shoes,door,fem_plain_mal_sws,critical,2/2/2017,10:21,top_img,true,3005,1,1_2_2_1,word_1_word_2_word_3,near,cheese,English_Speech,preschool,megan,,,,,,,,,male
L8py2,19,14,fem_plain,mal_sws,3,door,cheese,cheese,cheese,shoes,door,fem_plain_mal_sws,critical,2/2/2017,10:21,left,false,3215,2,1_2_2_1,word_1_word_2_word_3,near,shoes,English_Speech,preschool,megan,,,,,,,,,male
L8py2,20,18,fem_plain,mal_sws,1,camera,ball,raspberry,ball,camera,raspberry,fem_plain_mal_sws,critical,2/2/2017,10:21,left,true,2634,1,2_1_2_0,word_1_word_3_word_2,different,camera,English_Speech,preschool,megan,,,,,,,,,male
L8py2,20,18,fem_plain,mal_sws,2,camera,ball,raspberry,ball,camera,raspberry,fem_plain_mal_sws,critical,2/2/2017,10:21,top_img,true,3129,2,2_1_2_0,word_1_word_3_word_2,different,ball,English_Speech,preschool,megan,,,,,,,,,male
L8py2,20,18,fem_plain,mal_sws,3,camera,ball,raspberry,ball,camera,raspberry,fem_plain_mal_sws,critical,2/2/2017,10:21,right,true,8584,2,2_1_2_0,word_1_word_3_word_2,different,raspberry,English_Speech,preschool,megan,,,,,,,,,male
L8py2,21,19,fem_plain,mal_sws,1,building_blocks,santa,santa,tree,santa,building_blocks,fem_plain_mal_sws,critical,2/2/2017,10:21,right,true,3785,1,2_1_1_1,word_3_word_1_word_2,near,building_blocks,English_Speech,preschool,megan,,,,,,,,,male
L8py2,21,19,fem_plain,mal_sws,2,building_blocks,santa,santa,tree,santa,building_blocks,fem_plain_mal_sws,critical,2/2/2017,10:21,left,true,3973,2,2_1_1_1,word_3_word_1_word_2,near,santa,English_Speech,preschool,megan,,,,,,,,,male
L8py2,21,19,fem_plain,mal_sws,3,building_blocks,santa,santa,tree,santa,building_blocks,fem_plain_mal_sws,critical,2/2/2017,10:21,top_img,false,1761,2,2_1_1_1,word_3_word_1_word_2,near,tree,English_Speech,preschool,megan,,,,,,,,,male
L8py2,22,2,fem_plain,mal_sws,1,chicken,bed,bed,chicken,bed,fork,fem_plain_mal_sws,critical,2/2/2017,10:21,top_img,true,3539,2,1_2_2_1,word_2_word_1_word_3,near,chicken,English_Speech,preschool,megan,,,,,,,,,male
L8py2,22,2,fem_plain,mal_sws,2,chicken,bed,bed,chicken,bed,fork,fem_plain_mal_sws,critical,2/2/2017,10:21,left,true,3488,1,1_2_2_1,word_2_word_1_word_3,near,bed,English_Speech,preschool,megan,,,,,,,,,male
L8py2,22,2,fem_plain,mal_sws,3,chicken,bed,bed,chicken,bed,fork,fem_plain_mal_sws,critical,2/2/2017,10:21,right,false,2143,2,1_2_2_1,word_2_word_1_word_3,near,fork,English_Speech,preschool,megan,,,,,,,,,male
L8py2,23,16,fem_plain,mal_sws,1,banana,paintbrush,chair,chair,paintbrush,banana,fem_plain_mal_sws,critical,2/2/2017,10:21,right,true,2794,3,2_1_1_0,word_3_word_1_word_2,different,banana,English_Speech,preschool,megan,,,,,,,,,male
L8py2,23,16,fem_plain,mal_sws,2,banana,paintbrush,chair,chair,paintbrush,banana,fem_plain_mal_sws,critical,2/2/2017,10:21,left,true,3933,1,2_1_1_0,word_3_word_1_word_2,different,paintbrush,English_Speech,preschool,megan,,,,,,,,,male
L8py2,23,16,fem_plain,mal_sws,3,banana,paintbrush,chair,chair,paintbrush,banana,fem_plain_mal_sws,critical,2/2/2017,10:21,top_img,true,2363,2,2_1_1_0,word_3_word_1_word_2,different,chair,English_Speech,preschool,megan,,,,,,,,,male
L8py2,24,23,fem_plain,mal_sws,1,teddy_bear,table,bath,teddy_bear,bath,table,fem_plain_mal_sws,critical,2/2/2017,10:21,top_img,true,3014,2,2_1_1_0,word_2_word_1_word_3,different,teddy_bear,English_Speech,preschool,megan,,,,,,,,,male
L8py2,24,23,fem_plain,mal_sws,2,teddy_bear,table,bath,teddy_bear,bath,table,fem_plain_mal_sws,critical,2/2/2017,10:21,right,true,3368,2,2_1_1_0,word_2_word_1_word_3,different,table,English_Speech,preschool,megan,,,,,,,,,male
L8py2,24,23,fem_plain,mal_sws,3,teddy_bear,table,bath,teddy_bear,bath,table,fem_plain_mal_sws,critical,2/2/2017,10:21,left,true,2545,2,2_1_1_0,word_2_word_1_word_3,different,bath,English_Speech,preschool,megan,,,,,,,,,male
L8py2,25,17,fem_plain,mal_sws,1,ambulance,hand,ambulance,hand,ambulance,cake,fem_plain_mal_sws,critical,2/2/2017,10:21,left,true,2743,2,1_2_1_1,word_3_word_2_word_1,far,ambulance,English_Speech,preschool,megan,,,,,,,,,male
L8py2,25,17,fem_plain,mal_sws,2,ambulance,hand,ambulance,hand,ambulance,cake,fem_plain_mal_sws,critical,2/2/2017,10:21,top_img,true,3291,1,1_2_1_1,word_3_word_2_word_1,far,hand,English_Speech,preschool,megan,,,,,,,,,male
L8py2,25,17,fem_plain,mal_sws,3,ambulance,hand,ambulance,hand,ambulance,cake,fem_plain_mal_sws,critical,2/2/2017,10:21,right,false,2767,2,1_2_1_1,word_3_word_2_word_1,far,cake,English_Speech,preschool,megan,,,,,,,,,male
