subject_id,trial_number,trial_id,plain,sws,instruction_number,sound1_item,sound2_item,sound3_item,top_image,left_image,right_image,sound_gender,trial_type,date_stamp,time_stamp,side_chosen,accuracy,rt,play_counter,order,pic_position,distance,chosen_pic,test_lang,testing_loc,tester,date_of_birth,ethnicity,native_lang,other_langs,parental_occ,dev_info,birth_order,num_siblings,gender
QFfN5,1,0,mal_plain,fem_sws,1,glasses,tractor,glasses,tractor,fireman,glasses,mal_plain_fem_sws,training,2/2/2017,11:10,right,true,3059,2,1_2_1_1,word_3_word_1_word_2,far,glasses,English_Speech,preschool,megan,,,,,,,,,male
QFfN5,1,0,mal_plain,fem_sws,2,glasses,tractor,glasses,tractor,fireman,glasses,mal_plain_fem_sws,training,2/2/2017,11:10,top_img,true,2399,2,1_2_1_1,word_3_word_1_word_2,far,tractor,English_Speech,preschool,megan,,,,,,,,,male
QFfN5,1,0,mal_plain,fem_sws,3,glasses,tractor,glasses,tractor,fireman,glasses,mal_plain_fem_sws,training,2/2/2017,11:10,right,true,4266,8,1_2_1_1,word_3_word_1_word_2,far,glasses,English_Speech,preschool,megan,,,,,,,,,male
QFfN5,2,11,mal_plain,fem_sws,1,book,lorry,lorry,cow,lorry,book,mal_plain_fem_sws,critical,2/2/2017,11:10,right,true,3122,2,2_1_1_1,word_3_word_2_word_1,near,book,English_Speech,preschool,megan,,,,,,,,,male
QFfN5,2,11,mal_plain,fem_sws,2,book,lorry,lorry,cow,lorry,book,mal_plain_fem_sws,critical,2/2/2017,11:10,left,true,5929,1,2_1_1_1,word_3_word_2_word_1,near,lorry,English_Speech,preschool,megan,,,,,,,,,male
QFfN5,2,11,mal_plain,fem_sws,3,book,lorry,lorry,cow,lorry,book,mal_plain_fem_sws,critical,2/2/2017,11:10,left,true,2839,1,2_1_1_1,word_3_word_2_word_1,near,lorry,English_Speech,preschool,megan,,,,,,,,,male
QFfN5,3,21,mal_plain,fem_sws,1,eye,sheep,frog,sheep,frog,eye,mal_plain_fem_sws,critical,2/2/2017,11:10,right,true,2430,2,2_1_1_0,word_2_word_1_word_3,different,eye,English_Speech,preschool,megan,,,,,,,,,male
QFfN5,3,21,mal_plain,fem_sws,2,eye,sheep,frog,sheep,frog,eye,mal_plain_fem_sws,critical,2/2/2017,11:10,top_img,true,2767,2,2_1_1_0,word_2_word_1_word_3,different,sheep,English_Speech,preschool,megan,,,,,,,,,male
QFfN5,3,21,mal_plain,fem_sws,3,eye,sheep,frog,sheep,frog,eye,mal_plain_fem_sws,critical,2/2/2017,11:10,left,true,3604,1,2_1_1_0,word_2_word_1_word_3,different,frog,English_Speech,preschool,megan,,,,,,,,,male
QFfN5,4,15,mal_plain,fem_sws,1,slide,pencil,pencil,slide,beans,pencil,mal_plain_fem_sws,critical,2/2/2017,11:10,top_img,true,2733,2,2_1_1_1,word_1_word_3_word_2,near,slide,English_Speech,preschool,megan,,,,,,,,,male
QFfN5,4,15,mal_plain,fem_sws,2,slide,pencil,pencil,slide,beans,pencil,mal_plain_fem_sws,critical,2/2/2017,11:10,right,true,1956,1,2_1_1_1,word_1_word_3_word_2,near,pencil,English_Speech,preschool,megan,,,,,,,,,male
QFfN5,4,15,mal_plain,fem_sws,3,slide,pencil,pencil,slide,beans,pencil,mal_plain_fem_sws,critical,2/2/2017,11:10,right,true,4203,2,2_1_1_1,word_1_word_3_word_2,near,pencil,English_Speech,preschool,megan,,,,,,,,,male
QFfN5,5,5,mal_plain,fem_sws,1,mouth,orange,orange,mouth,orange,car,mal_plain_fem_sws,critical,2/2/2017,11:10,top_img,true,2441,2,2_1_1_1,word_3_word_1_word_2,near,mouth,English_Speech,preschool,megan,,,,,,,,,male
QFfN5,5,5,mal_plain,fem_sws,2,mouth,orange,orange,mouth,orange,car,mal_plain_fem_sws,critical,2/2/2017,11:10,left,true,3269,1,2_1_1_1,word_3_word_1_word_2,near,orange,English_Speech,preschool,megan,,,,,,,,,male
QFfN5,5,5,mal_plain,fem_sws,3,mouth,orange,orange,mouth,orange,car,mal_plain_fem_sws,critical,2/2/2017,11:10,left,true,3195,2,2_1_1_1,word_3_word_1_word_2,near,orange,English_Speech,preschool,megan,,,,,,,,,male
QFfN5,6,1,mal_plain,fem_sws,1,baby,spoon,train,spoon,train,baby,mal_plain_fem_sws,critical,2/2/2017,11:10,right,true,1977,2,1_2_2_0,word_1_word_3_word_2,different,baby,English_Speech,preschool,megan,,,,,,,,,male
QFfN5,6,1,mal_plain,fem_sws,2,baby,spoon,train,spoon,train,baby,mal_plain_fem_sws,critical,2/2/2017,11:10,top_img,true,2097,2,1_2_2_0,word_1_word_3_word_2,different,spoon,English_Speech,preschool,megan,,,,,,,,,male
QFfN5,6,1,mal_plain,fem_sws,3,baby,spoon,train,spoon,train,baby,mal_plain_fem_sws,critical,2/2/2017,11:10,left,true,3301,4,1_2_2_0,word_1_word_3_word_2,different,train,English_Speech,preschool,megan,,,,,,,,,male
QFfN5,7,23,mal_plain,fem_sws,1,teddy_bear,bath,teddy_bear,table,teddy_bear,bath,mal_plain_fem_sws,critical,2/2/2017,11:10,left,true,2521,2,1_2_1_1,word_3_word_2_word_1,far,teddy_bear,English_Speech,preschool,megan,,,,,,,,,male
QFfN5,7,23,mal_plain,fem_sws,2,teddy_bear,bath,teddy_bear,table,teddy_bear,bath,mal_plain_fem_sws,critical,2/2/2017,11:10,right,true,3121,2,1_2_1_1,word_3_word_2_word_1,far,bath,English_Speech,preschool,megan,,,,,,,,,male
QFfN5,7,23,mal_plain,fem_sws,3,teddy_bear,bath,teddy_bear,table,teddy_bear,bath,mal_plain_fem_sws,critical,2/2/2017,11:10,top_img,false,5744,2,1_2_1_1,word_3_word_2_word_1,far,table,English_Speech,preschool,megan,,,,,,,,,male
QFfN5,8,19,mal_plain,fem_sws,1,tree,santa,building_blocks,tree,santa,building_blocks,mal_plain_fem_sws,critical,2/2/2017,11:10,left,false,5557,2,2_1_1_0,word_3_word_1_word_2,different,santa,English_Speech,preschool,megan,,,,,,,,,male
QFfN5,8,19,mal_plain,fem_sws,2,tree,santa,building_blocks,tree,santa,building_blocks,mal_plain_fem_sws,critical,2/2/2017,11:10,left,true,3268,2,2_1_1_0,word_3_word_1_word_2,different,santa,English_Speech,preschool,megan,,,,,,,,,male
QFfN5,8,19,mal_plain,fem_sws,3,tree,santa,building_blocks,tree,santa,building_blocks,mal_plain_fem_sws,critical,2/2/2017,11:10,right,true,2987,2,2_1_1_0,word_3_word_1_word_2,different,building_blocks,English_Speech,preschool,megan,,,,,,,,,male
QFfN5,9,17,mal_plain,fem_sws,1,hand,cake,hand,ambulance,cake,hand,mal_plain_fem_sws,critical,2/2/2017,11:10,right,true,2975,2,2_1_2_1,word_2_word_1_word_3,far,hand,English_Speech,preschool,megan,,,,,,,,,male
QFfN5,9,17,mal_plain,fem_sws,2,hand,cake,hand,ambulance,cake,hand,mal_plain_fem_sws,critical,2/2/2017,11:10,left,true,2258,2,2_1_2_1,word_2_word_1_word_3,far,cake,English_Speech,preschool,megan,,,,,,,,,male
QFfN5,9,17,mal_plain,fem_sws,3,hand,cake,hand,ambulance,cake,hand,mal_plain_fem_sws,critical,2/2/2017,11:10,right,true,3871,3,2_1_2_1,word_2_word_1_word_3,far,hand,English_Speech,preschool,megan,,,,,,,,,male
QFfN5,10,16,mal_plain,fem_sws,1,banana,paintbrush,chair,paintbrush,chair,banana,mal_plain_fem_sws,critical,2/2/2017,11:10,right,true,2377,1,2_1_1_0,word_1_word_3_word_2,different,banana,English_Speech,preschool,megan,,,,,,,,,male
QFfN5,10,16,mal_plain,fem_sws,2,banana,paintbrush,chair,paintbrush,chair,banana,mal_plain_fem_sws,critical,2/2/2017,11:10,top_img,true,2718,2,2_1_1_0,word_1_word_3_word_2,different,paintbrush,English_Speech,preschool,megan,,,,,,,,,male
QFfN5,10,16,mal_plain,fem_sws,3,banana,paintbrush,chair,paintbrush,chair,banana,mal_plain_fem_sws,critical,2/2/2017,11:10,left,true,3130,2,2_1_1_0,word_1_word_3_word_2,different,chair,English_Speech,preschool,megan,,,,,,,,,male
QFfN5,11,7,mal_plain,fem_sws,1,lolly,cat,lolly,lolly,cat,horse,mal_plain_fem_sws,critical,2/2/2017,11:10,top_img,true,2895,2,2_1_2_1,word_1_word_3_word_2,far,lolly,English_Speech,preschool,megan,,,,,,,,,male
QFfN5,11,7,mal_plain,fem_sws,2,lolly,cat,lolly,lolly,cat,horse,mal_plain_fem_sws,critical,2/2/2017,11:10,left,true,3083,2,2_1_2_1,word_1_word_3_word_2,far,cat,English_Speech,preschool,megan,,,,,,,,,male
QFfN5,11,7,mal_plain,fem_sws,3,lolly,cat,lolly,lolly,cat,horse,mal_plain_fem_sws,critical,2/2/2017,11:10,right,false,4398,1,2_1_2_1,word_1_word_3_word_2,far,horse,English_Speech,preschool,megan,,,,,,,,,male
QFfN5,12,10,mal_plain,fem_sws,1,hat,tshirt,pig,hat,pig,tshirt,mal_plain_fem_sws,critical,2/2/2017,11:10,top_img,true,2275,2,2_1_2_0,word_3_word_1_word_2,different,hat,English_Speech,preschool,megan,,,,,,,,,male
QFfN5,12,10,mal_plain,fem_sws,2,hat,tshirt,pig,hat,pig,tshirt,mal_plain_fem_sws,critical,2/2/2017,11:10,right,true,3361,2,2_1_2_0,word_3_word_1_word_2,different,tshirt,English_Speech,preschool,megan,,,,,,,,,male
QFfN5,12,10,mal_plain,fem_sws,3,hat,tshirt,pig,hat,pig,tshirt,mal_plain_fem_sws,critical,2/2/2017,11:10,left,true,2167,2,2_1_2_0,word_3_word_1_word_2,different,pig,English_Speech,preschool,megan,,,,,,,,,male
QFfN5,13,18,mal_plain,fem_sws,1,raspberry,camera,raspberry,raspberry,ball,camera,mal_plain_fem_sws,critical,2/2/2017,11:10,top_img,true,3310,2,2_1_2_1,word_2_word_1_word_3,far,raspberry,English_Speech,preschool,megan,,,,,,,,,male
QFfN5,13,18,mal_plain,fem_sws,2,raspberry,camera,raspberry,raspberry,ball,camera,mal_plain_fem_sws,critical,2/2/2017,11:10,right,true,1831,2,2_1_2_1,word_2_word_1_word_3,far,camera,English_Speech,preschool,megan,,,,,,,,,male
QFfN5,13,18,mal_plain,fem_sws,3,raspberry,camera,raspberry,raspberry,ball,camera,mal_plain_fem_sws,critical,2/2/2017,11:10,top_img,true,3228,2,2_1_2_1,word_2_word_1_word_3,far,raspberry,English_Speech,preschool,megan,,,,,,,,,male
QFfN5,14,2,mal_plain,fem_sws,1,bed,chicken,chicken,fork,bed,chicken,mal_plain_fem_sws,critical,2/2/2017,11:10,left,true,2989,2,1_2_2_1,word_3_word_1_word_2,near,bed,English_Speech,preschool,megan,,,,,,,,,male
QFfN5,14,2,mal_plain,fem_sws,2,bed,chicken,chicken,fork,bed,chicken,mal_plain_fem_sws,critical,2/2/2017,11:10,right,true,3093,2,1_2_2_1,word_3_word_1_word_2,near,chicken,English_Speech,preschool,megan,,,,,,,,,male
QFfN5,14,2,mal_plain,fem_sws,3,bed,chicken,chicken,fork,bed,chicken,mal_plain_fem_sws,critical,2/2/2017,11:10,right,true,3440,2,1_2_2_1,word_3_word_1_word_2,near,chicken,English_Speech,preschool,megan,,,,,,,,,male
QFfN5,15,6,mal_plain,fem_sws,1,bird,carrot,peas,bird,peas,carrot,mal_plain_fem_sws,critical,2/2/2017,11:10,top_img,true,2513,2,2_1_1_0,word_1_word_2_word_3,different,bird,English_Speech,preschool,megan,,,,,,,,,male
QFfN5,15,6,mal_plain,fem_sws,2,bird,carrot,peas,bird,peas,carrot,mal_plain_fem_sws,critical,2/2/2017,11:10,right,true,2424,1,2_1_1_0,word_1_word_2_word_3,different,carrot,English_Speech,preschool,megan,,,,,,,,,male
QFfN5,15,6,mal_plain,fem_sws,3,bird,carrot,peas,bird,peas,carrot,mal_plain_fem_sws,critical,2/2/2017,11:10,left,true,4434,2,2_1_1_0,word_1_word_2_word_3,different,peas,English_Speech,preschool,megan,,,,,,,,,male
QFfN5,16,9,mal_plain,fem_sws,1,pizza,grapes,grapes,pizza,grapes,window,mal_plain_fem_sws,critical,2/2/2017,11:10,top_img,true,2388,1,1_2_2_1,word_1_word_3_word_2,near,pizza,English_Speech,preschool,megan,,,,,,,,,male
QFfN5,16,9,mal_plain,fem_sws,2,pizza,grapes,grapes,pizza,grapes,window,mal_plain_fem_sws,critical,2/2/2017,11:10,left,true,2382,4,1_2_2_1,word_1_word_3_word_2,near,grapes,English_Speech,preschool,megan,,,,,,,,,male
QFfN5,16,9,mal_plain,fem_sws,3,pizza,grapes,grapes,pizza,grapes,window,mal_plain_fem_sws,critical,2/2/2017,11:10,left,true,3204,2,1_2_2_1,word_1_word_3_word_2,near,grapes,English_Speech,preschool,megan,,,,,,,,,male
QFfN5,17,12,mal_plain,fem_sws,1,yoghurt,gloves,gloves,gloves,yoghurt,foot,mal_plain_fem_sws,critical,2/2/2017,11:10,left,true,2687,2,1_2_2_1,word_3_word_2_word_1,near,yoghurt,English_Speech,preschool,megan,,,,,,,,,male
QFfN5,17,12,mal_plain,fem_sws,2,yoghurt,gloves,gloves,gloves,yoghurt,foot,mal_plain_fem_sws,critical,2/2/2017,11:10,top_img,true,3543,1,1_2_2_1,word_3_word_2_word_1,near,gloves,English_Speech,preschool,megan,,,,,,,,,male
QFfN5,17,12,mal_plain,fem_sws,3,yoghurt,gloves,gloves,gloves,yoghurt,foot,mal_plain_fem_sws,critical,2/2/2017,11:10,top_img,true,3485,2,1_2_2_1,word_3_word_2_word_1,near,gloves,English_Speech,preschool,megan,,,,,,,,,male
QFfN5,18,3,mal_plain,fem_sws,1,telephone,trousers,nose,trousers,telephone,nose,mal_plain_fem_sws,critical,2/2/2017,11:10,left,true,3804,2,2_1_1_0,word_1_word_3_word_2,different,telephone,English_Speech,preschool,megan,,,,,,,,,male
QFfN5,18,3,mal_plain,fem_sws,2,telephone,trousers,nose,trousers,telephone,nose,mal_plain_fem_sws,critical,2/2/2017,11:10,top_img,true,3263,2,2_1_1_0,word_1_word_3_word_2,different,trousers,English_Speech,preschool,megan,,,,,,,,,male
QFfN5,18,3,mal_plain,fem_sws,3,telephone,trousers,nose,trousers,telephone,nose,mal_plain_fem_sws,critical,2/2/2017,11:10,right,true,2667,1,2_1_1_0,word_1_word_3_word_2,different,nose,English_Speech,preschool,megan,,,,,,,,,male
QFfN5,19,24,mal_plain,fem_sws,1,sink,fish,sink,socks,fish,sink,mal_plain_fem_sws,critical,2/2/2017,11:10,right,true,2779,2,1_2_1_1,word_3_word_2_word_1,far,sink,English_Speech,preschool,megan,,,,,,,,,male
QFfN5,19,24,mal_plain,fem_sws,2,sink,fish,sink,socks,fish,sink,mal_plain_fem_sws,critical,2/2/2017,11:10,left,true,3008,1,1_2_1_1,word_3_word_2_word_1,far,fish,English_Speech,preschool,megan,,,,,,,,,male
QFfN5,19,24,mal_plain,fem_sws,3,sink,fish,sink,socks,fish,sink,mal_plain_fem_sws,critical,2/2/2017,11:10,top_img,false,4691,3,1_2_1_1,word_3_word_2_word_1,far,socks,English_Speech,preschool,megan,,,,,,,,,male
QFfN5,20,8,mal_plain,fem_sws,1,wellyboots,ear,fire_engine,fire_engine,ear,wellyboots,mal_plain_fem_sws,critical,2/2/2017,11:10,right,true,2575,2,1_2_2_0,word_2_word_3_word_1,different,wellyboots,English_Speech,preschool,megan,,,,,,,,,male
QFfN5,20,8,mal_plain,fem_sws,2,wellyboots,ear,fire_engine,fire_engine,ear,wellyboots,mal_plain_fem_sws,critical,2/2/2017,11:10,left,true,2704,2,1_2_2_0,word_2_word_3_word_1,different,ear,English_Speech,preschool,megan,,,,,,,,,male
QFfN5,20,8,mal_plain,fem_sws,3,wellyboots,ear,fire_engine,fire_engine,ear,wellyboots,mal_plain_fem_sws,critical,2/2/2017,11:10,top_img,true,3966,2,1_2_2_0,word_2_word_3_word_1,different,fire_engine,English_Speech,preschool,megan,,,,,,,,,male
QFfN5,21,20,mal_plain,fem_sws,1,rabbit,apple,jumper,jumper,apple,rabbit,mal_plain_fem_sws,critical,2/2/2017,11:10,right,true,2066,2,2_1_2_0,word_1_word_3_word_2,different,rabbit,English_Speech,preschool,megan,,,,,,,,,male
QFfN5,21,20,mal_plain,fem_sws,2,rabbit,apple,jumper,jumper,apple,rabbit,mal_plain_fem_sws,critical,2/2/2017,11:10,left,true,2795,2,2_1_2_0,word_1_word_3_word_2,different,apple,English_Speech,preschool,megan,,,,,,,,,male
QFfN5,21,20,mal_plain,fem_sws,3,rabbit,apple,jumper,jumper,apple,rabbit,mal_plain_fem_sws,critical,2/2/2017,11:10,top_img,true,2834,2,2_1_2_0,word_1_word_3_word_2,different,jumper,English_Speech,preschool,megan,,,,,,,,,male
QFfN5,22,13,mal_plain,fem_sws,1,airplane,toothbrush,bread,toothbrush,bread,airplane,mal_plain_fem_sws,critical,2/2/2017,11:10,right,true,3021,2,1_2_2_0,word_1_word_3_word_2,different,airplane,English_Speech,preschool,megan,,,,,,,,,male
QFfN5,22,13,mal_plain,fem_sws,2,airplane,toothbrush,bread,toothbrush,bread,airplane,mal_plain_fem_sws,critical,2/2/2017,11:10,top_img,true,2445,2,1_2_2_0,word_1_word_3_word_2,different,toothbrush,English_Speech,preschool,megan,,,,,,,,,male
QFfN5,22,13,mal_plain,fem_sws,3,airplane,toothbrush,bread,toothbrush,bread,airplane,mal_plain_fem_sws,critical,2/2/2017,11:10,left,true,3325,2,1_2_2_0,word_1_word_3_word_2,different,bread,English_Speech,preschool,megan,,,,,,,,,male
QFfN5,23,4,mal_plain,fem_sws,1,flower,strawberry,coat,strawberry,flower,coat,mal_plain_fem_sws,critical,2/2/2017,11:10,left,true,2575,2,2_1_1_0,word_2_word_3_word_1,different,flower,English_Speech,preschool,megan,,,,,,,,,male
QFfN5,23,4,mal_plain,fem_sws,2,flower,strawberry,coat,strawberry,flower,coat,mal_plain_fem_sws,critical,2/2/2017,11:10,top_img,true,2282,2,2_1_1_0,word_2_word_3_word_1,different,strawberry,English_Speech,preschool,megan,,,,,,,,,male
QFfN5,23,4,mal_plain,fem_sws,3,flower,strawberry,coat,strawberry,flower,coat,mal_plain_fem_sws,critical,2/2/2017,11:10,right,true,2520,2,2_1_1_0,word_2_word_3_word_1,different,coat,English_Speech,preschool,megan,,,,,,,,,male
QFfN5,24,14,mal_plain,fem_sws,1,door,cheese,shoes,shoes,cheese,door,mal_plain_fem_sws,critical,2/2/2017,11:10,right,true,3026,1,2_1_2_0,word_2_word_1_word_3,different,door,English_Speech,preschool,megan,,,,,,,,,male
QFfN5,24,14,mal_plain,fem_sws,2,door,cheese,shoes,shoes,cheese,door,mal_plain_fem_sws,critical,2/2/2017,11:10,left,true,2685,1,2_1_2_0,word_2_word_1_word_3,different,cheese,English_Speech,preschool,megan,,,,,,,,,male
QFfN5,24,14,mal_plain,fem_sws,3,door,cheese,shoes,shoes,cheese,door,mal_plain_fem_sws,critical,2/2/2017,11:10,top_img,true,3506,2,2_1_2_0,word_2_word_1_word_3,different,shoes,English_Speech,preschool,megan,,,,,,,,,male
QFfN5,25,22,mal_plain,fem_sws,1,dog,bike,dog,dog,bike,doctor,mal_plain_fem_sws,critical,2/2/2017,11:10,top_img,true,2532,2,1_2_1_1,word_2_word_1_word_3,far,dog,English_Speech,preschool,megan,,,,,,,,,male
QFfN5,25,22,mal_plain,fem_sws,2,dog,bike,dog,dog,bike,doctor,mal_plain_fem_sws,critical,2/2/2017,11:10,left,true,2542,2,1_2_1_1,word_2_word_1_word_3,far,bike,English_Speech,preschool,megan,,,,,,,,,male
QFfN5,25,22,mal_plain,fem_sws,3,dog,bike,dog,dog,bike,doctor,mal_plain_fem_sws,critical,2/2/2017,11:10,top_img,true,3092,4,1_2_1_1,word_2_word_1_word_3,far,dog,English_Speech,preschool,megan,,,,,,,,,male
