subject_id,trial_number,trial_id,plain,sws,instruction_number,sound1_item,sound2_item,sound3_item,top_image,left_image,right_image,sound_gender,trial_type,date_stamp,time_stamp,side_chosen,accuracy,rt,play_counter,order,pic_position,distance,chosen_pic,test_lang,testing_loc,tester,date_of_birth,ethnicity,native_lang,other_langs,parental_occ,dev_info,birth_order,num_siblings,gender
QSyJO,1,0,fem_plain,mal_sws,1,glasses,fireman,tractor,glasses,tractor,fireman,fem_plain_mal_sws,training,2/1/2017,11:16,right,false,7967,1,1_2_2_0,word_2_word_3_word_1,different,fireman,English_Speech,preschool,katy,,,,,,,,,female
QSyJO,1,0,fem_plain,mal_sws,2,glasses,fireman,tractor,glasses,tractor,fireman,fem_plain_mal_sws,training,2/1/2017,11:16,right,true,6396,1,1_2_2_0,word_2_word_3_word_1,different,fireman,English_Speech,preschool,katy,,,,,,,,,female
QSyJO,1,0,fem_plain,mal_sws,3,glasses,fireman,tractor,glasses,tractor,fireman,fem_plain_mal_sws,training,2/1/2017,11:16,left,true,4424,7,1_2_2_0,word_2_word_3_word_1,different,tractor,English_Speech,preschool,katy,,,,,,,,,female
QSyJO,2,20,fem_plain,mal_sws,1,jumper,rabbit,rabbit,apple,jumper,rabbit,fem_plain_mal_sws,critical,2/1/2017,11:16,left,true,2843,2,2_1_1_1,word_3_word_1_word_2,near,jumper,English_Speech,preschool,katy,,,,,,,,,female
QSyJO,2,20,fem_plain,mal_sws,2,jumper,rabbit,rabbit,apple,jumper,rabbit,fem_plain_mal_sws,critical,2/1/2017,11:16,right,true,2481,1,2_1_1_1,word_3_word_1_word_2,near,rabbit,English_Speech,preschool,katy,,,,,,,,,female
QSyJO,2,20,fem_plain,mal_sws,3,jumper,rabbit,rabbit,apple,jumper,rabbit,fem_plain_mal_sws,critical,2/1/2017,11:16,right,true,2439,2,2_1_1_1,word_3_word_1_word_2,near,rabbit,English_Speech,preschool,katy,,,,,,,,,female
QSyJO,3,9,fem_plain,mal_sws,1,grapes,window,pizza,window,grapes,pizza,fem_plain_mal_sws,critical,2/1/2017,11:16,left,true,2523,1,2_1_2_0,word_2_word_3_word_1,different,grapes,English_Speech,preschool,katy,,,,,,,,,female
QSyJO,3,9,fem_plain,mal_sws,2,grapes,window,pizza,window,grapes,pizza,fem_plain_mal_sws,critical,2/1/2017,11:16,top_img,true,2557,1,2_1_2_0,word_2_word_3_word_1,different,window,English_Speech,preschool,katy,,,,,,,,,female
QSyJO,3,9,fem_plain,mal_sws,3,grapes,window,pizza,window,grapes,pizza,fem_plain_mal_sws,critical,2/1/2017,11:16,right,true,5402,2,2_1_2_0,word_2_word_3_word_1,different,pizza,English_Speech,preschool,katy,,,,,,,,,female
QSyJO,4,24,fem_plain,mal_sws,1,fish,socks,fish,socks,sink,fish,fem_plain_mal_sws,critical,2/1/2017,11:16,right,true,2841,2,2_1_2_1,word_3_word_1_word_2,far,fish,English_Speech,preschool,katy,,,,,,,,,female
QSyJO,4,24,fem_plain,mal_sws,2,fish,socks,fish,socks,sink,fish,fem_plain_mal_sws,critical,2/1/2017,11:16,top_img,true,5365,1,2_1_2_1,word_3_word_1_word_2,far,socks,English_Speech,preschool,katy,,,,,,,,,female
QSyJO,4,24,fem_plain,mal_sws,3,fish,socks,fish,socks,sink,fish,fem_plain_mal_sws,critical,2/1/2017,11:16,right,true,3037,4,2_1_2_1,word_3_word_1_word_2,far,fish,English_Speech,preschool,katy,,,,,,,,,female
QSyJO,5,5,fem_plain,mal_sws,1,mouth,car,orange,mouth,orange,car,fem_plain_mal_sws,critical,2/1/2017,11:16,top_img,true,3397,2,1_2_2_0,word_3_word_1_word_2,different,mouth,English_Speech,preschool,katy,,,,,,,,,female
QSyJO,5,5,fem_plain,mal_sws,2,mouth,car,orange,mouth,orange,car,fem_plain_mal_sws,critical,2/1/2017,11:16,right,true,2381,3,1_2_2_0,word_3_word_1_word_2,different,car,English_Speech,preschool,katy,,,,,,,,,female
QSyJO,5,5,fem_plain,mal_sws,3,mouth,car,orange,mouth,orange,car,fem_plain_mal_sws,critical,2/1/2017,11:16,left,true,3156,2,1_2_2_0,word_3_word_1_word_2,different,orange,English_Speech,preschool,katy,,,,,,,,,female
QSyJO,6,6,fem_plain,mal_sws,1,carrot,bird,peas,peas,carrot,bird,fem_plain_mal_sws,critical,2/1/2017,11:16,left,true,2933,1,2_1_2_0,word_2_word_3_word_1,different,carrot,English_Speech,preschool,katy,,,,,,,,,female
QSyJO,6,6,fem_plain,mal_sws,2,carrot,bird,peas,peas,carrot,bird,fem_plain_mal_sws,critical,2/1/2017,11:16,right,true,1905,4,2_1_2_0,word_2_word_3_word_1,different,bird,English_Speech,preschool,katy,,,,,,,,,female
QSyJO,6,6,fem_plain,mal_sws,3,carrot,bird,peas,peas,carrot,bird,fem_plain_mal_sws,critical,2/1/2017,11:16,top_img,true,2878,2,2_1_2_0,word_2_word_3_word_1,different,peas,English_Speech,preschool,katy,,,,,,,,,female
QSyJO,7,1,fem_plain,mal_sws,1,train,baby,spoon,baby,train,spoon,fem_plain_mal_sws,critical,2/1/2017,11:16,left,true,3174,2,2_1_1_0,word_2_word_3_word_1,different,train,English_Speech,preschool,katy,,,,,,,,,female
QSyJO,7,1,fem_plain,mal_sws,2,train,baby,spoon,baby,train,spoon,fem_plain_mal_sws,critical,2/1/2017,11:16,top_img,true,2477,3,2_1_1_0,word_2_word_3_word_1,different,baby,English_Speech,preschool,katy,,,,,,,,,female
QSyJO,7,1,fem_plain,mal_sws,3,train,baby,spoon,baby,train,spoon,fem_plain_mal_sws,critical,2/1/2017,11:16,right,true,2280,2,2_1_1_0,word_2_word_3_word_1,different,spoon,English_Speech,preschool,katy,,,,,,,,,female
QSyJO,8,11,fem_plain,mal_sws,1,lorry,cow,cow,cow,book,lorry,fem_plain_mal_sws,critical,2/1/2017,11:16,right,true,7876,3,1_2_2_1,word_3_word_1_word_2,near,lorry,English_Speech,preschool,katy,,,,,,,,,female
QSyJO,8,11,fem_plain,mal_sws,2,lorry,cow,cow,cow,book,lorry,fem_plain_mal_sws,critical,2/1/2017,11:16,top_img,true,3483,1,1_2_2_1,word_3_word_1_word_2,near,cow,English_Speech,preschool,katy,,,,,,,,,female
QSyJO,8,11,fem_plain,mal_sws,3,lorry,cow,cow,cow,book,lorry,fem_plain_mal_sws,critical,2/1/2017,11:16,left,false,3177,1,1_2_2_1,word_3_word_1_word_2,near,book,English_Speech,preschool,katy,,,,,,,,,female
QSyJO,9,4,fem_plain,mal_sws,1,coat,strawberry,coat,coat,flower,strawberry,fem_plain_mal_sws,critical,2/1/2017,11:16,top_img,true,3516,4,1_2_1_1,word_1_word_3_word_2,far,coat,English_Speech,preschool,katy,,,,,,,,,female
QSyJO,9,4,fem_plain,mal_sws,2,coat,strawberry,coat,coat,flower,strawberry,fem_plain_mal_sws,critical,2/1/2017,11:16,right,true,2481,2,1_2_1_1,word_1_word_3_word_2,far,strawberry,English_Speech,preschool,katy,,,,,,,,,female
QSyJO,9,4,fem_plain,mal_sws,3,coat,strawberry,coat,coat,flower,strawberry,fem_plain_mal_sws,critical,2/1/2017,11:16,left,false,2855,1,1_2_1_1,word_1_word_3_word_2,far,flower,English_Speech,preschool,katy,,,,,,,,,female
QSyJO,10,15,fem_plain,mal_sws,1,beans,slide,pencil,pencil,slide,beans,fem_plain_mal_sws,critical,2/1/2017,11:16,right,true,4134,2,2_1_1_0,word_2_word_1_word_3,different,beans,English_Speech,preschool,katy,,,,,,,,,female
QSyJO,10,15,fem_plain,mal_sws,2,beans,slide,pencil,pencil,slide,beans,fem_plain_mal_sws,critical,2/1/2017,11:16,left,true,2491,1,2_1_1_0,word_2_word_1_word_3,different,slide,English_Speech,preschool,katy,,,,,,,,,female
QSyJO,10,15,fem_plain,mal_sws,3,beans,slide,pencil,pencil,slide,beans,fem_plain_mal_sws,critical,2/1/2017,11:16,top_img,true,2148,2,2_1_1_0,word_2_word_1_word_3,different,pencil,English_Speech,preschool,katy,,,,,,,,,female
QSyJO,11,23,fem_plain,mal_sws,1,table,teddy_bear,teddy_bear,table,bath,teddy_bear,fem_plain_mal_sws,critical,2/1/2017,11:16,top_img,true,3042,2,1_2_2_1,word_3_word_1_word_2,near,table,English_Speech,preschool,katy,,,,,,,,,female
QSyJO,11,23,fem_plain,mal_sws,2,table,teddy_bear,teddy_bear,table,bath,teddy_bear,fem_plain_mal_sws,critical,2/1/2017,11:16,right,true,3730,2,1_2_2_1,word_3_word_1_word_2,near,teddy_bear,English_Speech,preschool,katy,,,,,,,,,female
QSyJO,11,23,fem_plain,mal_sws,3,table,teddy_bear,teddy_bear,table,bath,teddy_bear,fem_plain_mal_sws,critical,2/1/2017,11:16,right,true,5278,1,1_2_2_1,word_3_word_1_word_2,near,teddy_bear,English_Speech,preschool,katy,,,,,,,,,female
QSyJO,12,13,fem_plain,mal_sws,1,airplane,bread,toothbrush,toothbrush,bread,airplane,fem_plain_mal_sws,critical,2/1/2017,11:16,top_img,false,457,15,1_2_2_0,word_1_word_3_word_2,different,toothbrush,English_Speech,preschool,katy,,,,,,,,,female
QSyJO,12,13,fem_plain,mal_sws,2,airplane,bread,toothbrush,toothbrush,bread,airplane,fem_plain_mal_sws,critical,2/1/2017,11:16,left,true,7320,2,1_2_2_0,word_1_word_3_word_2,different,bread,English_Speech,preschool,katy,,,,,,,,,female
QSyJO,12,13,fem_plain,mal_sws,3,airplane,bread,toothbrush,toothbrush,bread,airplane,fem_plain_mal_sws,critical,2/1/2017,11:16,top_img,true,8097,2,1_2_2_0,word_1_word_3_word_2,different,toothbrush,English_Speech,preschool,katy,,,,,,,,,female
QSyJO,13,2,fem_plain,mal_sws,1,bed,chicken,bed,fork,bed,chicken,fem_plain_mal_sws,critical,2/1/2017,11:16,left,true,6158,2,2_1_2_1,word_3_word_1_word_2,far,bed,English_Speech,preschool,katy,,,,,,,,,female
QSyJO,13,2,fem_plain,mal_sws,2,bed,chicken,bed,fork,bed,chicken,fem_plain_mal_sws,critical,2/1/2017,11:16,top_img,false,6289,2,2_1_2_1,word_3_word_1_word_2,far,fork,English_Speech,preschool,katy,,,,,,,,,female
QSyJO,13,2,fem_plain,mal_sws,3,bed,chicken,bed,fork,bed,chicken,fem_plain_mal_sws,critical,2/1/2017,11:16,top_img,false,3877,2,2_1_2_1,word_3_word_1_word_2,far,fork,English_Speech,preschool,katy,,,,,,,,,female
QSyJO,14,10,fem_plain,mal_sws,1,tshirt,hat,hat,tshirt,pig,hat,fem_plain_mal_sws,critical,2/1/2017,11:16,top_img,true,4015,1,1_2_2_1,word_2_word_1_word_3,near,tshirt,English_Speech,preschool,katy,,,,,,,,,female
QSyJO,14,10,fem_plain,mal_sws,2,tshirt,hat,hat,tshirt,pig,hat,fem_plain_mal_sws,critical,2/1/2017,11:16,right,true,4287,1,1_2_2_1,word_2_word_1_word_3,near,hat,English_Speech,preschool,katy,,,,,,,,,female
QSyJO,14,10,fem_plain,mal_sws,3,tshirt,hat,hat,tshirt,pig,hat,fem_plain_mal_sws,critical,2/1/2017,11:16,right,true,7161,2,1_2_2_1,word_2_word_1_word_3,near,hat,English_Speech,preschool,katy,,,,,,,,,female
QSyJO,15,7,fem_plain,mal_sws,1,lolly,cat,lolly,lolly,horse,cat,fem_plain_mal_sws,critical,2/1/2017,11:16,top_img,true,3074,2,2_1_2_1,word_1_word_2_word_3,far,lolly,English_Speech,preschool,katy,,,,,,,,,female
QSyJO,15,7,fem_plain,mal_sws,2,lolly,cat,lolly,lolly,horse,cat,fem_plain_mal_sws,critical,2/1/2017,11:16,right,true,6934,3,2_1_2_1,word_1_word_2_word_3,far,cat,English_Speech,preschool,katy,,,,,,,,,female
QSyJO,15,7,fem_plain,mal_sws,3,lolly,cat,lolly,lolly,horse,cat,fem_plain_mal_sws,critical,2/1/2017,11:16,top_img,true,4506,2,2_1_2_1,word_1_word_2_word_3,far,lolly,English_Speech,preschool,katy,,,,,,,,,female
QSyJO,16,3,fem_plain,mal_sws,1,trousers,telephone,nose,telephone,nose,trousers,fem_plain_mal_sws,critical,2/1/2017,11:16,right,true,4396,3,2_1_2_0,word_3_word_2_word_1,different,trousers,English_Speech,preschool,katy,,,,,,,,,female
QSyJO,16,3,fem_plain,mal_sws,2,trousers,telephone,nose,telephone,nose,trousers,fem_plain_mal_sws,critical,2/1/2017,11:16,top_img,true,3403,1,2_1_2_0,word_3_word_2_word_1,different,telephone,English_Speech,preschool,katy,,,,,,,,,female
QSyJO,16,3,fem_plain,mal_sws,3,trousers,telephone,nose,telephone,nose,trousers,fem_plain_mal_sws,critical,2/1/2017,11:16,left,true,3773,1,2_1_2_0,word_3_word_2_word_1,different,nose,English_Speech,preschool,katy,,,,,,,,,female
QSyJO,17,12,fem_plain,mal_sws,1,foot,gloves,foot,yoghurt,foot,gloves,fem_plain_mal_sws,critical,2/1/2017,11:16,left,true,5088,2,1_2_1_1,word_2_word_1_word_3,far,foot,English_Speech,preschool,katy,,,,,,,,,female
QSyJO,17,12,fem_plain,mal_sws,2,foot,gloves,foot,yoghurt,foot,gloves,fem_plain_mal_sws,critical,2/1/2017,11:16,right,true,3723,2,1_2_1_1,word_2_word_1_word_3,far,gloves,English_Speech,preschool,katy,,,,,,,,,female
QSyJO,17,12,fem_plain,mal_sws,3,foot,gloves,foot,yoghurt,foot,gloves,fem_plain_mal_sws,critical,2/1/2017,11:16,top_img,false,4211,2,1_2_1_1,word_2_word_1_word_3,far,yoghurt,English_Speech,preschool,katy,,,,,,,,,female
QSyJO,18,17,fem_plain,mal_sws,1,ambulance,cake,hand,hand,ambulance,cake,fem_plain_mal_sws,critical,2/1/2017,11:16,left,true,2726,2,2_1_1_0,word_3_word_2_word_1,different,ambulance,English_Speech,preschool,katy,,,,,,,,,female
QSyJO,18,17,fem_plain,mal_sws,2,ambulance,cake,hand,hand,ambulance,cake,fem_plain_mal_sws,critical,2/1/2017,11:16,right,true,7867,2,2_1_1_0,word_3_word_2_word_1,different,cake,English_Speech,preschool,katy,,,,,,,,,female
QSyJO,18,17,fem_plain,mal_sws,3,ambulance,cake,hand,hand,ambulance,cake,fem_plain_mal_sws,critical,2/1/2017,11:16,top_img,true,2816,2,2_1_1_0,word_3_word_2_word_1,different,hand,English_Speech,preschool,katy,,,,,,,,,female
QSyJO,19,22,fem_plain,mal_sws,1,doctor,dog,bike,doctor,bike,dog,fem_plain_mal_sws,critical,2/1/2017,11:16,top_img,true,3243,2,2_1_1_0,word_3_word_1_word_2,different,doctor,English_Speech,preschool,katy,,,,,,,,,female
QSyJO,19,22,fem_plain,mal_sws,2,doctor,dog,bike,doctor,bike,dog,fem_plain_mal_sws,critical,2/1/2017,11:16,right,true,2975,1,2_1_1_0,word_3_word_1_word_2,different,dog,English_Speech,preschool,katy,,,,,,,,,female
QSyJO,19,22,fem_plain,mal_sws,3,doctor,dog,bike,doctor,bike,dog,fem_plain_mal_sws,critical,2/1/2017,11:16,left,true,3679,2,2_1_1_0,word_3_word_1_word_2,different,bike,English_Speech,preschool,katy,,,,,,,,,female
QSyJO,20,18,fem_plain,mal_sws,1,ball,raspberry,ball,raspberry,camera,ball,fem_plain_mal_sws,critical,2/1/2017,11:16,right,true,2752,2,1_2_1_1,word_2_word_3_word_1,far,ball,English_Speech,preschool,katy,,,,,,,,,female
QSyJO,20,18,fem_plain,mal_sws,2,ball,raspberry,ball,raspberry,camera,ball,fem_plain_mal_sws,critical,2/1/2017,11:16,top_img,true,5876,1,1_2_1_1,word_2_word_3_word_1,far,raspberry,English_Speech,preschool,katy,,,,,,,,,female
QSyJO,20,18,fem_plain,mal_sws,3,ball,raspberry,ball,raspberry,camera,ball,fem_plain_mal_sws,critical,2/1/2017,11:16,right,true,4300,3,1_2_1_1,word_2_word_3_word_1,far,ball,English_Speech,preschool,katy,,,,,,,,,female
QSyJO,21,21,fem_plain,mal_sws,1,eye,frog,sheep,eye,sheep,frog,fem_plain_mal_sws,critical,2/1/2017,11:16,top_img,true,5719,2,2_1_1_0,word_3_word_2_word_1,different,eye,English_Speech,preschool,katy,,,,,,,,,female
QSyJO,21,21,fem_plain,mal_sws,2,eye,frog,sheep,eye,sheep,frog,fem_plain_mal_sws,critical,2/1/2017,11:16,right,true,5176,1,2_1_1_0,word_3_word_2_word_1,different,frog,English_Speech,preschool,katy,,,,,,,,,female
QSyJO,21,21,fem_plain,mal_sws,3,eye,frog,sheep,eye,sheep,frog,fem_plain_mal_sws,critical,2/1/2017,11:16,left,true,3556,2,2_1_1_0,word_3_word_2_word_1,different,sheep,English_Speech,preschool,katy,,,,,,,,,female
QSyJO,22,16,fem_plain,mal_sws,1,paintbrush,banana,chair,chair,paintbrush,banana,fem_plain_mal_sws,critical,2/1/2017,11:16,left,true,4316,2,2_1_1_0,word_3_word_1_word_2,different,paintbrush,English_Speech,preschool,katy,,,,,,,,,female
QSyJO,22,16,fem_plain,mal_sws,2,paintbrush,banana,chair,chair,paintbrush,banana,fem_plain_mal_sws,critical,2/1/2017,11:16,right,true,3887,2,2_1_1_0,word_3_word_1_word_2,different,banana,English_Speech,preschool,katy,,,,,,,,,female
QSyJO,22,16,fem_plain,mal_sws,3,paintbrush,banana,chair,chair,paintbrush,banana,fem_plain_mal_sws,critical,2/1/2017,11:16,top_img,true,7412,2,2_1_1_0,word_3_word_1_word_2,different,chair,English_Speech,preschool,katy,,,,,,,,,female
QSyJO,23,19,fem_plain,mal_sws,1,santa,tree,tree,building_blocks,tree,santa,fem_plain_mal_sws,critical,2/1/2017,11:16,right,true,5550,2,2_1_1_1,word_2_word_3_word_1,near,santa,English_Speech,preschool,katy,,,,,,,,,female
QSyJO,23,19,fem_plain,mal_sws,2,santa,tree,tree,building_blocks,tree,santa,fem_plain_mal_sws,critical,2/1/2017,11:16,left,true,2715,1,2_1_1_1,word_2_word_3_word_1,near,tree,English_Speech,preschool,katy,,,,,,,,,female
QSyJO,23,19,fem_plain,mal_sws,3,santa,tree,tree,building_blocks,tree,santa,fem_plain_mal_sws,critical,2/1/2017,11:16,left,true,3441,1,2_1_1_1,word_2_word_3_word_1,near,tree,English_Speech,preschool,katy,,,,,,,,,female
QSyJO,24,8,fem_plain,mal_sws,1,wellyboots,ear,ear,wellyboots,fire_engine,ear,fem_plain_mal_sws,critical,2/1/2017,11:16,top_img,true,8156,2,2_1_1_1,word_1_word_2_word_3,near,wellyboots,English_Speech,preschool,katy,,,,,,,,,female
QSyJO,24,8,fem_plain,mal_sws,2,wellyboots,ear,ear,wellyboots,fire_engine,ear,fem_plain_mal_sws,critical,2/1/2017,11:16,right,true,4291,3,2_1_1_1,word_1_word_2_word_3,near,ear,English_Speech,preschool,katy,,,,,,,,,female
QSyJO,24,8,fem_plain,mal_sws,3,wellyboots,ear,ear,wellyboots,fire_engine,ear,fem_plain_mal_sws,critical,2/1/2017,11:16,left,false,2852,4,2_1_1_1,word_1_word_2_word_3,near,fire_engine,English_Speech,preschool,katy,,,,,,,,,female
QSyJO,25,14,fem_plain,mal_sws,1,shoes,cheese,shoes,door,shoes,cheese,fem_plain_mal_sws,critical,2/1/2017,11:16,left,true,5126,2,1_2_1_1,word_3_word_2_word_1,far,shoes,English_Speech,preschool,katy,,,,,,,,,female
QSyJO,25,14,fem_plain,mal_sws,2,shoes,cheese,shoes,door,shoes,cheese,fem_plain_mal_sws,critical,2/1/2017,11:16,right,true,4584,2,1_2_1_1,word_3_word_2_word_1,far,cheese,English_Speech,preschool,katy,,,,,,,,,female
QSyJO,25,14,fem_plain,mal_sws,3,shoes,cheese,shoes,door,shoes,cheese,fem_plain_mal_sws,critical,2/1/2017,11:16,left,true,4961,2,1_2_1_1,word_3_word_2_word_1,far,shoes,English_Speech,preschool,katy,,,,,,,,,female
