subject_id,trial_number,trial_id,plain,sws,instruction_number,sound1_item,sound2_item,sound3_item,top_image,left_image,right_image,sound_gender,trial_type,date_stamp,time_stamp,side_chosen,accuracy,rt,play_counter,order,pic_position,distance,chosen_pic,test_lang,testing_loc,tester,date_of_birth,ethnicity,native_lang,other_langs,parental_occ,dev_info,birth_order,num_siblings,gender
UvuO6,1,0,fem_plain,fem_sws,1,glasses,fireman,glasses,tractor,fireman,glasses,fem_plain_fem_sws,training,1/11/2017,14:17,right,true,3534,12,1_2_1_1,word_3_word_1_word_2,far,glasses,English_Speech,preschool,katy,,,,,,,,,female
UvuO6,1,0,fem_plain,fem_sws,2,glasses,fireman,glasses,tractor,fireman,glasses,fem_plain_fem_sws,training,1/11/2017,14:17,left,true,2345,3,1_2_1_1,word_3_word_1_word_2,far,fireman,English_Speech,preschool,katy,,,,,,,,,female
UvuO6,1,0,fem_plain,fem_sws,3,glasses,fireman,glasses,tractor,fireman,glasses,fem_plain_fem_sws,training,1/11/2017,14:17,right,true,3098,2,1_2_1_1,word_3_word_1_word_2,far,glasses,English_Speech,preschool,katy,,,,,,,,,female
UvuO6,2,22,fem_plain,fem_sws,1,dog,bike,doctor,bike,doctor,dog,fem_plain_fem_sws,critical,1/11/2017,14:17,right,true,2874,1,1_2_2_0,word_1_word_3_word_2,different,dog,English_Speech,preschool,katy,,,,,,,,,female
UvuO6,2,22,fem_plain,fem_sws,2,dog,bike,doctor,bike,doctor,dog,fem_plain_fem_sws,critical,1/11/2017,14:17,top_img,true,2778,3,1_2_2_0,word_1_word_3_word_2,different,bike,English_Speech,preschool,katy,,,,,,,,,female
UvuO6,2,22,fem_plain,fem_sws,3,dog,bike,doctor,bike,doctor,dog,fem_plain_fem_sws,critical,1/11/2017,14:17,left,true,2879,2,1_2_2_0,word_1_word_3_word_2,different,doctor,English_Speech,preschool,katy,,,,,,,,,female
UvuO6,3,4,fem_plain,fem_sws,1,strawberry,coat,flower,strawberry,coat,flower,fem_plain_fem_sws,critical,1/11/2017,14:17,top_img,true,2465,2,2_1_1_0,word_2_word_1_word_3,different,strawberry,English_Speech,preschool,katy,,,,,,,,,female
UvuO6,3,4,fem_plain,fem_sws,2,strawberry,coat,flower,strawberry,coat,flower,fem_plain_fem_sws,critical,1/11/2017,14:17,left,true,2457,2,2_1_1_0,word_2_word_1_word_3,different,coat,English_Speech,preschool,katy,,,,,,,,,female
UvuO6,3,4,fem_plain,fem_sws,3,strawberry,coat,flower,strawberry,coat,flower,fem_plain_fem_sws,critical,1/11/2017,14:17,right,true,2322,2,2_1_1_0,word_2_word_1_word_3,different,flower,English_Speech,preschool,katy,,,,,,,,,female
UvuO6,4,2,fem_plain,fem_sws,1,fork,chicken,bed,chicken,fork,bed,fem_plain_fem_sws,critical,1/11/2017,14:17,left,true,2759,2,2_1_1_0,word_2_word_3_word_1,different,fork,English_Speech,preschool,katy,,,,,,,,,female
UvuO6,4,2,fem_plain,fem_sws,2,fork,chicken,bed,chicken,fork,bed,fem_plain_fem_sws,critical,1/11/2017,14:17,top_img,true,2929,2,2_1_1_0,word_2_word_3_word_1,different,chicken,English_Speech,preschool,katy,,,,,,,,,female
UvuO6,4,2,fem_plain,fem_sws,3,fork,chicken,bed,chicken,fork,bed,fem_plain_fem_sws,critical,1/11/2017,14:17,right,true,2828,5,2_1_1_0,word_2_word_3_word_1,different,bed,English_Speech,preschool,katy,,,,,,,,,female
UvuO6,5,20,fem_plain,fem_sws,1,rabbit,apple,jumper,apple,jumper,rabbit,fem_plain_fem_sws,critical,1/11/2017,14:17,right,true,2760,2,1_2_2_0,word_3_word_1_word_2,different,rabbit,English_Speech,preschool,katy,,,,,,,,,female
UvuO6,5,20,fem_plain,fem_sws,2,rabbit,apple,jumper,apple,jumper,rabbit,fem_plain_fem_sws,critical,1/11/2017,14:17,top_img,true,3539,1,1_2_2_0,word_3_word_1_word_2,different,apple,English_Speech,preschool,katy,,,,,,,,,female
UvuO6,5,20,fem_plain,fem_sws,3,rabbit,apple,jumper,apple,jumper,rabbit,fem_plain_fem_sws,critical,1/11/2017,14:17,left,true,2205,2,1_2_2_0,word_3_word_1_word_2,different,jumper,English_Speech,preschool,katy,,,,,,,,,female
UvuO6,6,15,fem_plain,fem_sws,1,beans,slide,slide,slide,pencil,beans,fem_plain_fem_sws,critical,1/11/2017,14:17,right,true,2782,3,1_2_2_1,word_1_word_2_word_3,near,beans,English_Speech,preschool,katy,,,,,,,,,female
UvuO6,6,15,fem_plain,fem_sws,2,beans,slide,slide,slide,pencil,beans,fem_plain_fem_sws,critical,1/11/2017,14:17,top_img,true,2502,1,1_2_2_1,word_1_word_2_word_3,near,slide,English_Speech,preschool,katy,,,,,,,,,female
UvuO6,6,15,fem_plain,fem_sws,3,beans,slide,slide,slide,pencil,beans,fem_plain_fem_sws,critical,1/11/2017,14:17,top_img,true,4521,2,1_2_2_1,word_1_word_2_word_3,near,slide,English_Speech,preschool,katy,,,,,,,,,female
UvuO6,7,12,fem_plain,fem_sws,1,gloves,yoghurt,gloves,foot,gloves,yoghurt,fem_plain_fem_sws,critical,1/11/2017,14:17,left,true,3725,2,1_2_1_1,word_1_word_3_word_2,far,gloves,English_Speech,preschool,katy,,,,,,,,,female
UvuO6,7,12,fem_plain,fem_sws,2,gloves,yoghurt,gloves,foot,gloves,yoghurt,fem_plain_fem_sws,critical,1/11/2017,14:17,right,true,3075,2,1_2_1_1,word_1_word_3_word_2,far,yoghurt,English_Speech,preschool,katy,,,,,,,,,female
UvuO6,7,12,fem_plain,fem_sws,3,gloves,yoghurt,gloves,foot,gloves,yoghurt,fem_plain_fem_sws,critical,1/11/2017,14:17,left,true,3903,3,1_2_1_1,word_1_word_3_word_2,far,gloves,English_Speech,preschool,katy,,,,,,,,,female
UvuO6,8,24,fem_plain,fem_sws,1,sink,fish,socks,sink,socks,fish,fem_plain_fem_sws,critical,1/11/2017,14:17,top_img,true,3052,1,2_1_2_0,word_1_word_3_word_2,different,sink,English_Speech,preschool,katy,,,,,,,,,female
UvuO6,8,24,fem_plain,fem_sws,2,sink,fish,socks,sink,socks,fish,fem_plain_fem_sws,critical,1/11/2017,14:17,right,true,2763,1,2_1_2_0,word_1_word_3_word_2,different,fish,English_Speech,preschool,katy,,,,,,,,,female
UvuO6,8,24,fem_plain,fem_sws,3,sink,fish,socks,sink,socks,fish,fem_plain_fem_sws,critical,1/11/2017,14:17,left,true,2232,2,2_1_2_0,word_1_word_3_word_2,different,socks,English_Speech,preschool,katy,,,,,,,,,female
UvuO6,9,1,fem_plain,fem_sws,1,train,baby,spoon,train,spoon,baby,fem_plain_fem_sws,critical,1/11/2017,14:17,top_img,true,2315,1,2_1_1_0,word_3_word_1_word_2,different,train,English_Speech,preschool,katy,,,,,,,,,female
UvuO6,9,1,fem_plain,fem_sws,2,train,baby,spoon,train,spoon,baby,fem_plain_fem_sws,critical,1/11/2017,14:17,right,true,2232,1,2_1_1_0,word_3_word_1_word_2,different,baby,English_Speech,preschool,katy,,,,,,,,,female
UvuO6,9,1,fem_plain,fem_sws,3,train,baby,spoon,train,spoon,baby,fem_plain_fem_sws,critical,1/11/2017,14:17,left,true,2582,1,2_1_1_0,word_3_word_1_word_2,different,spoon,English_Speech,preschool,katy,,,,,,,,,female
UvuO6,10,5,fem_plain,fem_sws,1,orange,mouth,car,mouth,car,orange,fem_plain_fem_sws,critical,1/11/2017,14:17,right,true,3530,1,2_1_1_0,word_3_word_2_word_1,different,orange,English_Speech,preschool,katy,,,,,,,,,female
UvuO6,10,5,fem_plain,fem_sws,2,orange,mouth,car,mouth,car,orange,fem_plain_fem_sws,critical,1/11/2017,14:17,top_img,true,2454,1,2_1_1_0,word_3_word_2_word_1,different,mouth,English_Speech,preschool,katy,,,,,,,,,female
UvuO6,10,5,fem_plain,fem_sws,3,orange,mouth,car,mouth,car,orange,fem_plain_fem_sws,critical,1/11/2017,14:17,left,true,2327,3,2_1_1_0,word_3_word_2_word_1,different,car,English_Speech,preschool,katy,,,,,,,,,female
UvuO6,11,16,fem_plain,fem_sws,1,chair,paintbrush,chair,paintbrush,chair,banana,fem_plain_fem_sws,critical,1/11/2017,14:17,left,true,3528,1,1_2_1_1,word_1_word_3_word_2,far,chair,English_Speech,preschool,katy,,,,,,,,,female
UvuO6,11,16,fem_plain,fem_sws,2,chair,paintbrush,chair,paintbrush,chair,banana,fem_plain_fem_sws,critical,1/11/2017,14:17,top_img,true,2573,1,1_2_1_1,word_1_word_3_word_2,far,paintbrush,English_Speech,preschool,katy,,,,,,,,,female
UvuO6,11,16,fem_plain,fem_sws,3,chair,paintbrush,chair,paintbrush,chair,banana,fem_plain_fem_sws,critical,1/11/2017,14:17,left,true,3204,1,1_2_1_1,word_1_word_3_word_2,far,chair,English_Speech,preschool,katy,,,,,,,,,female
UvuO6,12,23,fem_plain,fem_sws,1,teddy_bear,table,bath,teddy_bear,bath,table,fem_plain_fem_sws,critical,1/11/2017,14:17,top_img,true,2717,1,2_1_1_0,word_2_word_1_word_3,different,teddy_bear,English_Speech,preschool,katy,,,,,,,,,female
UvuO6,12,23,fem_plain,fem_sws,2,teddy_bear,table,bath,teddy_bear,bath,table,fem_plain_fem_sws,critical,1/11/2017,14:17,right,true,2848,1,2_1_1_0,word_2_word_1_word_3,different,table,English_Speech,preschool,katy,,,,,,,,,female
UvuO6,12,23,fem_plain,fem_sws,3,teddy_bear,table,bath,teddy_bear,bath,table,fem_plain_fem_sws,critical,1/11/2017,14:17,left,true,2434,1,2_1_1_0,word_2_word_1_word_3,different,bath,English_Speech,preschool,katy,,,,,,,,,female
UvuO6,13,7,fem_plain,fem_sws,1,horse,cat,cat,horse,lolly,cat,fem_plain_fem_sws,critical,1/11/2017,14:17,top_img,true,2602,1,2_1_1_1,word_2_word_1_word_3,near,horse,English_Speech,preschool,katy,,,,,,,,,female
UvuO6,13,7,fem_plain,fem_sws,2,horse,cat,cat,horse,lolly,cat,fem_plain_fem_sws,critical,1/11/2017,14:17,right,true,2963,1,2_1_1_1,word_2_word_1_word_3,near,cat,English_Speech,preschool,katy,,,,,,,,,female
UvuO6,13,7,fem_plain,fem_sws,3,horse,cat,cat,horse,lolly,cat,fem_plain_fem_sws,critical,1/11/2017,14:17,right,true,3141,1,2_1_1_1,word_2_word_1_word_3,near,cat,English_Speech,preschool,katy,,,,,,,,,female
UvuO6,14,6,fem_plain,fem_sws,1,bird,peas,peas,bird,carrot,peas,fem_plain_fem_sws,critical,1/11/2017,14:17,top_img,true,3103,1,2_1_1_1,word_1_word_3_word_2,near,bird,English_Speech,preschool,katy,,,,,,,,,female
UvuO6,14,6,fem_plain,fem_sws,2,bird,peas,peas,bird,carrot,peas,fem_plain_fem_sws,critical,1/11/2017,14:17,right,true,2966,1,2_1_1_1,word_1_word_3_word_2,near,peas,English_Speech,preschool,katy,,,,,,,,,female
UvuO6,14,6,fem_plain,fem_sws,3,bird,peas,peas,bird,carrot,peas,fem_plain_fem_sws,critical,1/11/2017,14:17,right,true,2577,1,2_1_1_1,word_1_word_3_word_2,near,peas,English_Speech,preschool,katy,,,,,,,,,female
UvuO6,15,19,fem_plain,fem_sws,1,tree,building_blocks,tree,tree,santa,building_blocks,fem_plain_fem_sws,critical,1/11/2017,14:17,top_img,true,2763,1,2_1_2_1,word_3_word_1_word_2,far,tree,English_Speech,preschool,katy,,,,,,,,,female
UvuO6,15,19,fem_plain,fem_sws,2,tree,building_blocks,tree,tree,santa,building_blocks,fem_plain_fem_sws,critical,1/11/2017,14:17,right,true,2641,3,2_1_2_1,word_3_word_1_word_2,far,building_blocks,English_Speech,preschool,katy,,,,,,,,,female
UvuO6,15,19,fem_plain,fem_sws,3,tree,building_blocks,tree,tree,santa,building_blocks,fem_plain_fem_sws,critical,1/11/2017,14:17,top_img,true,2554,1,2_1_2_1,word_3_word_1_word_2,far,tree,English_Speech,preschool,katy,,,,,,,,,female
UvuO6,16,14,fem_plain,fem_sws,1,shoes,door,shoes,shoes,door,cheese,fem_plain_fem_sws,critical,1/11/2017,14:17,top_img,true,2723,1,2_1_2_1,word_2_word_3_word_1,far,shoes,English_Speech,preschool,katy,,,,,,,,,female
UvuO6,16,14,fem_plain,fem_sws,2,shoes,door,shoes,shoes,door,cheese,fem_plain_fem_sws,critical,1/11/2017,14:17,left,true,2380,1,2_1_2_1,word_2_word_3_word_1,far,door,English_Speech,preschool,katy,,,,,,,,,female
UvuO6,16,14,fem_plain,fem_sws,3,shoes,door,shoes,shoes,door,cheese,fem_plain_fem_sws,critical,1/11/2017,14:17,top_img,true,3050,1,2_1_2_1,word_2_word_3_word_1,far,shoes,English_Speech,preschool,katy,,,,,,,,,female
UvuO6,17,17,fem_plain,fem_sws,1,ambulance,cake,hand,cake,hand,ambulance,fem_plain_fem_sws,critical,1/11/2017,14:17,right,true,2671,2,2_1_1_0,word_1_word_3_word_2,different,ambulance,English_Speech,preschool,katy,,,,,,,,,female
UvuO6,17,17,fem_plain,fem_sws,2,ambulance,cake,hand,cake,hand,ambulance,fem_plain_fem_sws,critical,1/11/2017,14:17,top_img,true,2528,2,2_1_1_0,word_1_word_3_word_2,different,cake,English_Speech,preschool,katy,,,,,,,,,female
UvuO6,17,17,fem_plain,fem_sws,3,ambulance,cake,hand,cake,hand,ambulance,fem_plain_fem_sws,critical,1/11/2017,14:17,left,true,3995,2,2_1_1_0,word_1_word_3_word_2,different,hand,English_Speech,preschool,katy,,,,,,,,,female
UvuO6,18,8,fem_plain,fem_sws,1,fire_engine,wellyboots,wellyboots,wellyboots,ear,fire_engine,fem_plain_fem_sws,critical,1/11/2017,14:17,right,true,3747,1,1_2_2_1,word_1_word_3_word_2,near,fire_engine,English_Speech,preschool,katy,,,,,,,,,female
UvuO6,18,8,fem_plain,fem_sws,2,fire_engine,wellyboots,wellyboots,wellyboots,ear,fire_engine,fem_plain_fem_sws,critical,1/11/2017,14:17,top_img,true,2910,1,1_2_2_1,word_1_word_3_word_2,near,wellyboots,English_Speech,preschool,katy,,,,,,,,,female
UvuO6,18,8,fem_plain,fem_sws,3,fire_engine,wellyboots,wellyboots,wellyboots,ear,fire_engine,fem_plain_fem_sws,critical,1/11/2017,14:17,top_img,true,2681,1,1_2_2_1,word_1_word_3_word_2,near,wellyboots,English_Speech,preschool,katy,,,,,,,,,female
UvuO6,19,18,fem_plain,fem_sws,1,camera,raspberry,ball,camera,ball,raspberry,fem_plain_fem_sws,critical,1/11/2017,14:17,top_img,true,2295,2,2_1_2_0,word_3_word_1_word_2,different,camera,English_Speech,preschool,katy,,,,,,,,,female
UvuO6,19,18,fem_plain,fem_sws,2,camera,raspberry,ball,camera,ball,raspberry,fem_plain_fem_sws,critical,1/11/2017,14:17,right,true,3117,1,2_1_2_0,word_3_word_1_word_2,different,raspberry,English_Speech,preschool,katy,,,,,,,,,female
UvuO6,19,18,fem_plain,fem_sws,3,camera,raspberry,ball,camera,ball,raspberry,fem_plain_fem_sws,critical,1/11/2017,14:17,left,true,2573,2,2_1_2_0,word_3_word_1_word_2,different,ball,English_Speech,preschool,katy,,,,,,,,,female
UvuO6,20,9,fem_plain,fem_sws,1,pizza,grapes,window,pizza,grapes,window,fem_plain_fem_sws,critical,1/11/2017,14:17,top_img,true,2558,2,2_1_2_0,word_1_word_3_word_2,different,pizza,English_Speech,preschool,katy,,,,,,,,,female
UvuO6,20,9,fem_plain,fem_sws,2,pizza,grapes,window,pizza,grapes,window,fem_plain_fem_sws,critical,1/11/2017,14:17,left,true,2237,2,2_1_2_0,word_1_word_3_word_2,different,grapes,English_Speech,preschool,katy,,,,,,,,,female
UvuO6,20,9,fem_plain,fem_sws,3,pizza,grapes,window,pizza,grapes,window,fem_plain_fem_sws,critical,1/11/2017,14:17,right,true,2081,2,2_1_2_0,word_1_word_3_word_2,different,window,English_Speech,preschool,katy,,,,,,,,,female
UvuO6,21,13,fem_plain,fem_sws,1,toothbrush,bread,toothbrush,airplane,bread,toothbrush,fem_plain_fem_sws,critical,1/11/2017,14:17,right,true,2451,2,2_1_2_1,word_2_word_3_word_1,far,toothbrush,English_Speech,preschool,katy,,,,,,,,,female
UvuO6,21,13,fem_plain,fem_sws,2,toothbrush,bread,toothbrush,airplane,bread,toothbrush,fem_plain_fem_sws,critical,1/11/2017,14:17,left,true,3163,1,2_1_2_1,word_2_word_3_word_1,far,bread,English_Speech,preschool,katy,,,,,,,,,female
UvuO6,21,13,fem_plain,fem_sws,3,toothbrush,bread,toothbrush,airplane,bread,toothbrush,fem_plain_fem_sws,critical,1/11/2017,14:17,right,true,3478,1,2_1_2_1,word_2_word_3_word_1,far,toothbrush,English_Speech,preschool,katy,,,,,,,,,female
UvuO6,22,21,fem_plain,fem_sws,1,sheep,eye,eye,eye,frog,sheep,fem_plain_fem_sws,critical,1/11/2017,14:17,right,true,3525,2,1_2_2_1,word_3_word_1_word_2,near,sheep,English_Speech,preschool,katy,,,,,,,,,female
UvuO6,22,21,fem_plain,fem_sws,2,sheep,eye,eye,eye,frog,sheep,fem_plain_fem_sws,critical,1/11/2017,14:17,top_img,true,2474,2,1_2_2_1,word_3_word_1_word_2,near,eye,English_Speech,preschool,katy,,,,,,,,,female
UvuO6,22,21,fem_plain,fem_sws,3,sheep,eye,eye,eye,frog,sheep,fem_plain_fem_sws,critical,1/11/2017,14:17,top_img,true,3450,2,1_2_2_1,word_3_word_1_word_2,near,eye,English_Speech,preschool,katy,,,,,,,,,female
UvuO6,23,11,fem_plain,fem_sws,1,cow,lorry,book,book,lorry,cow,fem_plain_fem_sws,critical,1/11/2017,14:17,right,true,3757,2,1_2_2_0,word_1_word_2_word_3,different,cow,English_Speech,preschool,katy,,,,,,,,,female
UvuO6,23,11,fem_plain,fem_sws,2,cow,lorry,book,book,lorry,cow,fem_plain_fem_sws,critical,1/11/2017,14:17,left,true,2836,2,1_2_2_0,word_1_word_2_word_3,different,lorry,English_Speech,preschool,katy,,,,,,,,,female
UvuO6,23,11,fem_plain,fem_sws,3,cow,lorry,book,book,lorry,cow,fem_plain_fem_sws,critical,1/11/2017,14:17,top_img,true,2818,2,1_2_2_0,word_1_word_2_word_3,different,book,English_Speech,preschool,katy,,,,,,,,,female
UvuO6,24,3,fem_plain,fem_sws,1,telephone,nose,nose,telephone,nose,trousers,fem_plain_fem_sws,critical,1/11/2017,14:17,top_img,true,3253,2,2_1_1_1,word_3_word_2_word_1,near,telephone,English_Speech,preschool,katy,,,,,,,,,female
UvuO6,24,3,fem_plain,fem_sws,2,telephone,nose,nose,telephone,nose,trousers,fem_plain_fem_sws,critical,1/11/2017,14:17,left,true,2618,1,2_1_1_1,word_3_word_2_word_1,near,nose,English_Speech,preschool,katy,,,,,,,,,female
UvuO6,24,3,fem_plain,fem_sws,3,telephone,nose,nose,telephone,nose,trousers,fem_plain_fem_sws,critical,1/11/2017,14:17,left,true,2449,2,2_1_1_1,word_3_word_2_word_1,near,nose,English_Speech,preschool,katy,,,,,,,,,female
UvuO6,25,10,fem_plain,fem_sws,1,tshirt,hat,tshirt,tshirt,hat,pig,fem_plain_fem_sws,critical,1/11/2017,14:17,top_img,true,3183,2,1_2_1_1,word_2_word_3_word_1,far,tshirt,English_Speech,preschool,katy,,,,,,,,,female
UvuO6,25,10,fem_plain,fem_sws,2,tshirt,hat,tshirt,tshirt,hat,pig,fem_plain_fem_sws,critical,1/11/2017,14:17,left,true,2546,2,1_2_1_1,word_2_word_3_word_1,far,hat,English_Speech,preschool,katy,,,,,,,,,female
UvuO6,25,10,fem_plain,fem_sws,3,tshirt,hat,tshirt,tshirt,hat,pig,fem_plain_fem_sws,critical,1/11/2017,14:17,top_img,true,3885,1,1_2_1_1,word_2_word_3_word_1,far,tshirt,English_Speech,preschool,katy,,,,,,,,,female
