subject_id,trial_number,trial_id,plain,sws,instruction_number,sound1_item,sound2_item,sound3_item,top_image,left_image,right_image,sound_gender,trial_type,date_stamp,time_stamp,side_chosen,accuracy,rt,play_counter,order,pic_position,distance,chosen_pic,test_lang,testing_loc,tester,date_of_birth,ethnicity,native_lang,other_langs,parental_occ,dev_info,birth_order,num_siblings,gender
UWngh,1,0,mal_plain,fem_sws,1,tractor,glasses,fireman,tractor,glasses,fireman,mal_plain_fem_sws,training,1/11/2017,10:05,top_img,true,2879,4,2_1_1_0,word_3_word_2_word_1,different,tractor,English_Speech,preschool,katy,,,,,,,,,female
UWngh,1,0,mal_plain,fem_sws,2,tractor,glasses,fireman,tractor,glasses,fireman,mal_plain_fem_sws,training,1/11/2017,10:05,left,true,3575,1,2_1_1_0,word_3_word_2_word_1,different,glasses,English_Speech,preschool,katy,,,,,,,,,female
UWngh,1,0,mal_plain,fem_sws,3,tractor,glasses,fireman,tractor,glasses,fireman,mal_plain_fem_sws,training,1/11/2017,10:05,right,true,2980,1,2_1_1_0,word_3_word_2_word_1,different,fireman,English_Speech,preschool,katy,,,,,,,,,female
UWngh,2,13,mal_plain,fem_sws,1,toothbrush,bread,airplane,airplane,bread,toothbrush,mal_plain_fem_sws,critical,1/11/2017,10:05,right,true,2221,2,2_1_1_0,word_2_word_3_word_1,different,toothbrush,English_Speech,preschool,katy,,,,,,,,,female
UWngh,2,13,mal_plain,fem_sws,2,toothbrush,bread,airplane,airplane,bread,toothbrush,mal_plain_fem_sws,critical,1/11/2017,10:05,left,true,2471,2,2_1_1_0,word_2_word_3_word_1,different,bread,English_Speech,preschool,katy,,,,,,,,,female
UWngh,2,13,mal_plain,fem_sws,3,toothbrush,bread,airplane,airplane,bread,toothbrush,mal_plain_fem_sws,critical,1/11/2017,10:05,top_img,true,2119,4,2_1_1_0,word_2_word_3_word_1,different,airplane,English_Speech,preschool,katy,,,,,,,,,female
UWngh,3,2,mal_plain,fem_sws,1,chicken,fork,chicken,chicken,bed,fork,mal_plain_fem_sws,critical,1/11/2017,10:05,top_img,true,2559,2,1_2_1_1,word_2_word_1_word_3,far,chicken,English_Speech,preschool,katy,,,,,,,,,female
UWngh,3,2,mal_plain,fem_sws,2,chicken,fork,chicken,chicken,bed,fork,mal_plain_fem_sws,critical,1/11/2017,10:05,right,true,2079,1,1_2_1_1,word_2_word_1_word_3,far,fork,English_Speech,preschool,katy,,,,,,,,,female
UWngh,3,2,mal_plain,fem_sws,3,chicken,fork,chicken,chicken,bed,fork,mal_plain_fem_sws,critical,1/11/2017,10:05,left,false,6046,2,1_2_1_1,word_2_word_1_word_3,far,bed,English_Speech,preschool,katy,,,,,,,,,female
UWngh,4,19,mal_plain,fem_sws,1,santa,building_blocks,building_blocks,santa,building_blocks,tree,mal_plain_fem_sws,critical,1/11/2017,10:05,top_img,true,2320,2,1_2_2_1,word_1_word_2_word_3,near,santa,English_Speech,preschool,katy,,,,,,,,,female
UWngh,4,19,mal_plain,fem_sws,2,santa,building_blocks,building_blocks,santa,building_blocks,tree,mal_plain_fem_sws,critical,1/11/2017,10:05,left,true,2199,2,1_2_2_1,word_1_word_2_word_3,near,building_blocks,English_Speech,preschool,katy,,,,,,,,,female
UWngh,4,19,mal_plain,fem_sws,3,santa,building_blocks,building_blocks,santa,building_blocks,tree,mal_plain_fem_sws,critical,1/11/2017,10:05,right,false,2794,4,1_2_2_1,word_1_word_2_word_3,near,tree,English_Speech,preschool,katy,,,,,,,,,female
UWngh,5,17,mal_plain,fem_sws,1,cake,hand,hand,cake,hand,ambulance,mal_plain_fem_sws,critical,1/11/2017,10:05,top_img,true,2203,2,1_2_2_1,word_1_word_3_word_2,near,cake,English_Speech,preschool,katy,,,,,,,,,female
UWngh,5,17,mal_plain,fem_sws,2,cake,hand,hand,cake,hand,ambulance,mal_plain_fem_sws,critical,1/11/2017,10:05,left,true,2676,2,1_2_2_1,word_1_word_3_word_2,near,hand,English_Speech,preschool,katy,,,,,,,,,female
UWngh,5,17,mal_plain,fem_sws,3,cake,hand,hand,cake,hand,ambulance,mal_plain_fem_sws,critical,1/11/2017,10:05,right,false,3071,1,1_2_2_1,word_1_word_3_word_2,near,ambulance,English_Speech,preschool,katy,,,,,,,,,female
UWngh,6,22,mal_plain,fem_sws,1,dog,doctor,doctor,dog,doctor,bike,mal_plain_fem_sws,critical,1/11/2017,10:05,top_img,true,1731,2,2_1_1_1,word_2_word_3_word_1,near,dog,English_Speech,preschool,katy,,,,,,,,,female
UWngh,6,22,mal_plain,fem_sws,2,dog,doctor,doctor,dog,doctor,bike,mal_plain_fem_sws,critical,1/11/2017,10:05,left,true,2669,2,2_1_1_1,word_2_word_3_word_1,near,doctor,English_Speech,preschool,katy,,,,,,,,,female
UWngh,6,22,mal_plain,fem_sws,3,dog,doctor,doctor,dog,doctor,bike,mal_plain_fem_sws,critical,1/11/2017,10:05,right,false,3282,2,2_1_1_1,word_2_word_3_word_1,near,bike,English_Speech,preschool,katy,,,,,,,,,female
UWngh,7,11,mal_plain,fem_sws,1,cow,book,lorry,cow,lorry,book,mal_plain_fem_sws,critical,1/11/2017,10:05,top_img,true,3484,2,2_1_1_0,word_3_word_2_word_1,different,cow,English_Speech,preschool,katy,,,,,,,,,female
UWngh,7,11,mal_plain,fem_sws,2,cow,book,lorry,cow,lorry,book,mal_plain_fem_sws,critical,1/11/2017,10:05,right,true,2257,2,2_1_1_0,word_3_word_2_word_1,different,book,English_Speech,preschool,katy,,,,,,,,,female
UWngh,7,11,mal_plain,fem_sws,3,cow,book,lorry,cow,lorry,book,mal_plain_fem_sws,critical,1/11/2017,10:05,left,true,2236,2,2_1_1_0,word_3_word_2_word_1,different,lorry,English_Speech,preschool,katy,,,,,,,,,female
UWngh,8,3,mal_plain,fem_sws,1,trousers,telephone,nose,telephone,trousers,nose,mal_plain_fem_sws,critical,1/11/2017,10:05,left,true,2153,2,2_1_1_0,word_3_word_1_word_2,different,trousers,English_Speech,preschool,katy,,,,,,,,,female
UWngh,8,3,mal_plain,fem_sws,2,trousers,telephone,nose,telephone,trousers,nose,mal_plain_fem_sws,critical,1/11/2017,10:05,top_img,true,2599,2,2_1_1_0,word_3_word_1_word_2,different,telephone,English_Speech,preschool,katy,,,,,,,,,female
UWngh,8,3,mal_plain,fem_sws,3,trousers,telephone,nose,telephone,trousers,nose,mal_plain_fem_sws,critical,1/11/2017,10:05,right,true,2506,2,2_1_1_0,word_3_word_1_word_2,different,nose,English_Speech,preschool,katy,,,,,,,,,female
UWngh,9,9,mal_plain,fem_sws,1,window,grapes,window,window,grapes,pizza,mal_plain_fem_sws,critical,1/11/2017,10:05,top_img,true,2637,2,1_2_1_1,word_2_word_3_word_1,far,window,English_Speech,preschool,katy,,,,,,,,,female
UWngh,9,9,mal_plain,fem_sws,2,window,grapes,window,window,grapes,pizza,mal_plain_fem_sws,critical,1/11/2017,10:05,left,true,2204,2,1_2_1_1,word_2_word_3_word_1,far,grapes,English_Speech,preschool,katy,,,,,,,,,female
UWngh,9,9,mal_plain,fem_sws,3,window,grapes,window,window,grapes,pizza,mal_plain_fem_sws,critical,1/11/2017,10:05,right,false,1923,2,1_2_1_1,word_2_word_3_word_1,far,pizza,English_Speech,preschool,katy,,,,,,,,,female
UWngh,10,23,mal_plain,fem_sws,1,teddy_bear,bath,table,teddy_bear,table,bath,mal_plain_fem_sws,critical,1/11/2017,10:05,top_img,true,1866,2,1_2_2_0,word_2_word_3_word_1,different,teddy_bear,English_Speech,preschool,katy,,,,,,,,,female
UWngh,10,23,mal_plain,fem_sws,2,teddy_bear,bath,table,teddy_bear,table,bath,mal_plain_fem_sws,critical,1/11/2017,10:05,right,true,2194,2,1_2_2_0,word_2_word_3_word_1,different,bath,English_Speech,preschool,katy,,,,,,,,,female
UWngh,10,23,mal_plain,fem_sws,3,teddy_bear,bath,table,teddy_bear,table,bath,mal_plain_fem_sws,critical,1/11/2017,10:05,left,true,3737,3,1_2_2_0,word_2_word_3_word_1,different,table,English_Speech,preschool,katy,,,,,,,,,female
UWngh,11,6,mal_plain,fem_sws,1,bird,peas,carrot,bird,carrot,peas,mal_plain_fem_sws,critical,1/11/2017,10:05,top_img,true,1936,2,2_1_2_0,word_1_word_3_word_2,different,bird,English_Speech,preschool,katy,,,,,,,,,female
UWngh,11,6,mal_plain,fem_sws,2,bird,peas,carrot,bird,carrot,peas,mal_plain_fem_sws,critical,1/11/2017,10:05,right,true,1889,2,2_1_2_0,word_1_word_3_word_2,different,peas,English_Speech,preschool,katy,,,,,,,,,female
UWngh,11,6,mal_plain,fem_sws,3,bird,peas,carrot,bird,carrot,peas,mal_plain_fem_sws,critical,1/11/2017,10:05,left,true,2472,1,2_1_2_0,word_1_word_3_word_2,different,carrot,English_Speech,preschool,katy,,,,,,,,,female
UWngh,12,1,mal_plain,fem_sws,1,spoon,train,baby,baby,spoon,train,mal_plain_fem_sws,critical,1/11/2017,10:05,left,true,1965,2,2_1_1_0,word_2_word_1_word_3,different,spoon,English_Speech,preschool,katy,,,,,,,,,female
UWngh,12,1,mal_plain,fem_sws,2,spoon,train,baby,baby,spoon,train,mal_plain_fem_sws,critical,1/11/2017,10:05,right,true,1529,2,2_1_1_0,word_2_word_1_word_3,different,train,English_Speech,preschool,katy,,,,,,,,,female
UWngh,12,1,mal_plain,fem_sws,3,spoon,train,baby,baby,spoon,train,mal_plain_fem_sws,critical,1/11/2017,10:05,top_img,true,2185,2,2_1_1_0,word_2_word_1_word_3,different,baby,English_Speech,preschool,katy,,,,,,,,,female
UWngh,13,15,mal_plain,fem_sws,1,beans,pencil,beans,pencil,beans,slide,mal_plain_fem_sws,critical,1/11/2017,10:05,left,true,2432,2,1_2_1_1,word_2_word_3_word_1,far,beans,English_Speech,preschool,katy,,,,,,,,,female
UWngh,13,15,mal_plain,fem_sws,2,beans,pencil,beans,pencil,beans,slide,mal_plain_fem_sws,critical,1/11/2017,10:05,top_img,true,1869,2,1_2_1_1,word_2_word_3_word_1,far,pencil,English_Speech,preschool,katy,,,,,,,,,female
UWngh,13,15,mal_plain,fem_sws,3,beans,pencil,beans,pencil,beans,slide,mal_plain_fem_sws,critical,1/11/2017,10:05,right,false,1884,2,1_2_1_1,word_2_word_3_word_1,far,slide,English_Speech,preschool,katy,,,,,,,,,female
UWngh,14,18,mal_plain,fem_sws,1,ball,raspberry,camera,camera,raspberry,ball,mal_plain_fem_sws,critical,1/11/2017,10:05,right,true,3878,2,2_1_2_0,word_3_word_2_word_1,different,ball,English_Speech,preschool,katy,,,,,,,,,female
UWngh,14,18,mal_plain,fem_sws,2,ball,raspberry,camera,camera,raspberry,ball,mal_plain_fem_sws,critical,1/11/2017,10:05,left,true,3252,1,2_1_2_0,word_3_word_2_word_1,different,raspberry,English_Speech,preschool,katy,,,,,,,,,female
UWngh,14,18,mal_plain,fem_sws,3,ball,raspberry,camera,camera,raspberry,ball,mal_plain_fem_sws,critical,1/11/2017,10:05,top_img,true,2076,2,2_1_2_0,word_3_word_2_word_1,different,camera,English_Speech,preschool,katy,,,,,,,,,female
UWngh,15,16,mal_plain,fem_sws,1,paintbrush,banana,chair,chair,paintbrush,banana,mal_plain_fem_sws,critical,1/11/2017,10:05,left,true,2582,2,2_1_2_0,word_3_word_1_word_2,different,paintbrush,English_Speech,preschool,katy,,,,,,,,,female
UWngh,15,16,mal_plain,fem_sws,2,paintbrush,banana,chair,chair,paintbrush,banana,mal_plain_fem_sws,critical,1/11/2017,10:05,right,true,2062,2,2_1_2_0,word_3_word_1_word_2,different,banana,English_Speech,preschool,katy,,,,,,,,,female
UWngh,15,16,mal_plain,fem_sws,3,paintbrush,banana,chair,chair,paintbrush,banana,mal_plain_fem_sws,critical,1/11/2017,10:05,top_img,true,2089,2,2_1_2_0,word_3_word_1_word_2,different,chair,English_Speech,preschool,katy,,,,,,,,,female
UWngh,16,12,mal_plain,fem_sws,1,yoghurt,foot,gloves,yoghurt,foot,gloves,mal_plain_fem_sws,critical,1/11/2017,10:05,top_img,true,2874,2,1_2_2_0,word_2_word_1_word_3,different,yoghurt,English_Speech,preschool,katy,,,,,,,,,female
UWngh,16,12,mal_plain,fem_sws,2,yoghurt,foot,gloves,yoghurt,foot,gloves,mal_plain_fem_sws,critical,1/11/2017,10:05,left,true,2710,2,1_2_2_0,word_2_word_1_word_3,different,foot,English_Speech,preschool,katy,,,,,,,,,female
UWngh,16,12,mal_plain,fem_sws,3,yoghurt,foot,gloves,yoghurt,foot,gloves,mal_plain_fem_sws,critical,1/11/2017,10:05,right,true,2213,2,1_2_2_0,word_2_word_1_word_3,different,gloves,English_Speech,preschool,katy,,,,,,,,,female
UWngh,17,14,mal_plain,fem_sws,1,shoes,door,shoes,door,cheese,shoes,mal_plain_fem_sws,critical,1/11/2017,10:05,right,true,2195,1,2_1_2_1,word_3_word_1_word_2,far,shoes,English_Speech,preschool,katy,,,,,,,,,female
UWngh,17,14,mal_plain,fem_sws,2,shoes,door,shoes,door,cheese,shoes,mal_plain_fem_sws,critical,1/11/2017,10:05,top_img,true,2018,2,2_1_2_1,word_3_word_1_word_2,far,door,English_Speech,preschool,katy,,,,,,,,,female
UWngh,17,14,mal_plain,fem_sws,3,shoes,door,shoes,door,cheese,shoes,mal_plain_fem_sws,critical,1/11/2017,10:05,left,false,2114,2,2_1_2_1,word_3_word_1_word_2,far,cheese,English_Speech,preschool,katy,,,,,,,,,female
UWngh,18,8,mal_plain,fem_sws,1,wellyboots,fire_engine,ear,wellyboots,ear,fire_engine,mal_plain_fem_sws,critical,1/11/2017,10:05,top_img,true,2179,2,2_1_1_0,word_1_word_3_word_2,different,wellyboots,English_Speech,preschool,katy,,,,,,,,,female
UWngh,18,8,mal_plain,fem_sws,2,wellyboots,fire_engine,ear,wellyboots,ear,fire_engine,mal_plain_fem_sws,critical,1/11/2017,10:05,right,true,2800,2,2_1_1_0,word_1_word_3_word_2,different,fire_engine,English_Speech,preschool,katy,,,,,,,,,female
UWngh,18,8,mal_plain,fem_sws,3,wellyboots,fire_engine,ear,wellyboots,ear,fire_engine,mal_plain_fem_sws,critical,1/11/2017,10:05,left,true,3162,1,2_1_1_0,word_1_word_3_word_2,different,ear,English_Speech,preschool,katy,,,,,,,,,female
UWngh,19,20,mal_plain,fem_sws,1,apple,jumper,jumper,apple,jumper,rabbit,mal_plain_fem_sws,critical,1/11/2017,10:05,top_img,true,2311,2,1_2_2_1,word_3_word_1_word_2,near,apple,English_Speech,preschool,katy,,,,,,,,,female
UWngh,19,20,mal_plain,fem_sws,2,apple,jumper,jumper,apple,jumper,rabbit,mal_plain_fem_sws,critical,1/11/2017,10:05,left,true,2109,2,1_2_2_1,word_3_word_1_word_2,near,jumper,English_Speech,preschool,katy,,,,,,,,,female
UWngh,19,20,mal_plain,fem_sws,3,apple,jumper,jumper,apple,jumper,rabbit,mal_plain_fem_sws,critical,1/11/2017,10:05,right,false,2325,1,1_2_2_1,word_3_word_1_word_2,near,rabbit,English_Speech,preschool,katy,,,,,,,,,female
UWngh,20,5,mal_plain,fem_sws,1,car,mouth,car,car,mouth,orange,mal_plain_fem_sws,critical,1/11/2017,10:05,top_img,true,1830,2,2_1_2_1,word_2_word_3_word_1,far,car,English_Speech,preschool,katy,,,,,,,,,female
UWngh,20,5,mal_plain,fem_sws,2,car,mouth,car,car,mouth,orange,mal_plain_fem_sws,critical,1/11/2017,10:05,left,true,4926,2,2_1_2_1,word_2_word_3_word_1,far,mouth,English_Speech,preschool,katy,,,,,,,,,female
UWngh,20,5,mal_plain,fem_sws,3,car,mouth,car,car,mouth,orange,mal_plain_fem_sws,critical,1/11/2017,10:05,right,false,2274,2,2_1_2_1,word_2_word_3_word_1,far,orange,English_Speech,preschool,katy,,,,,,,,,female
UWngh,21,7,mal_plain,fem_sws,1,lolly,horse,horse,horse,cat,lolly,mal_plain_fem_sws,critical,1/11/2017,10:05,right,true,5180,2,2_1_1_1,word_2_word_3_word_1,near,lolly,English_Speech,preschool,katy,,,,,,,,,female
UWngh,21,7,mal_plain,fem_sws,2,lolly,horse,horse,horse,cat,lolly,mal_plain_fem_sws,critical,1/11/2017,10:05,right,false,2571,3,2_1_1_1,word_2_word_3_word_1,near,lolly,English_Speech,preschool,katy,,,,,,,,,female
UWngh,21,7,mal_plain,fem_sws,3,lolly,horse,horse,horse,cat,lolly,mal_plain_fem_sws,critical,1/11/2017,10:05,top_img,true,2353,2,2_1_1_1,word_2_word_3_word_1,near,horse,English_Speech,preschool,katy,,,,,,,,,female
UWngh,22,21,mal_plain,fem_sws,1,sheep,frog,sheep,sheep,eye,frog,mal_plain_fem_sws,critical,1/11/2017,10:05,top_img,true,2110,2,2_1_2_1,word_2_word_3_word_1,far,sheep,English_Speech,preschool,katy,,,,,,,,,female
UWngh,22,21,mal_plain,fem_sws,2,sheep,frog,sheep,sheep,eye,frog,mal_plain_fem_sws,critical,1/11/2017,10:05,right,true,3164,2,2_1_2_1,word_2_word_3_word_1,far,frog,English_Speech,preschool,katy,,,,,,,,,female
UWngh,22,21,mal_plain,fem_sws,3,sheep,frog,sheep,sheep,eye,frog,mal_plain_fem_sws,critical,1/11/2017,10:05,left,false,1765,3,2_1_2_1,word_2_word_3_word_1,far,eye,English_Speech,preschool,katy,,,,,,,,,female
UWngh,23,24,mal_plain,fem_sws,1,socks,fish,sink,socks,sink,fish,mal_plain_fem_sws,critical,1/11/2017,10:05,top_img,true,1988,3,1_2_2_0,word_3_word_1_word_2,different,socks,English_Speech,preschool,katy,,,,,,,,,female
UWngh,23,24,mal_plain,fem_sws,2,socks,fish,sink,socks,sink,fish,mal_plain_fem_sws,critical,1/11/2017,10:05,right,true,2291,7,1_2_2_0,word_3_word_1_word_2,different,fish,English_Speech,preschool,katy,,,,,,,,,female
UWngh,23,24,mal_plain,fem_sws,3,socks,fish,sink,socks,sink,fish,mal_plain_fem_sws,critical,1/11/2017,10:05,left,true,1405,2,1_2_2_0,word_3_word_1_word_2,different,sink,English_Speech,preschool,katy,,,,,,,,,female
UWngh,24,4,mal_plain,fem_sws,1,coat,strawberry,strawberry,flower,strawberry,coat,mal_plain_fem_sws,critical,1/11/2017,10:05,right,true,1961,1,2_1_1_1,word_3_word_2_word_1,near,coat,English_Speech,preschool,katy,,,,,,,,,female
UWngh,24,4,mal_plain,fem_sws,2,coat,strawberry,strawberry,flower,strawberry,coat,mal_plain_fem_sws,critical,1/11/2017,10:05,left,true,2076,2,2_1_1_1,word_3_word_2_word_1,near,strawberry,English_Speech,preschool,katy,,,,,,,,,female
UWngh,24,4,mal_plain,fem_sws,3,coat,strawberry,strawberry,flower,strawberry,coat,mal_plain_fem_sws,critical,1/11/2017,10:05,left,true,4198,6,2_1_1_1,word_3_word_2_word_1,near,strawberry,English_Speech,preschool,katy,,,,,,,,,female
UWngh,25,10,mal_plain,fem_sws,1,tshirt,hat,tshirt,tshirt,hat,pig,mal_plain_fem_sws,critical,1/11/2017,10:05,top_img,true,2762,2,1_2_1_1,word_2_word_3_word_1,far,tshirt,English_Speech,preschool,katy,,,,,,,,,female
UWngh,25,10,mal_plain,fem_sws,2,tshirt,hat,tshirt,tshirt,hat,pig,mal_plain_fem_sws,critical,1/11/2017,10:05,left,true,2083,2,1_2_1_1,word_2_word_3_word_1,far,hat,English_Speech,preschool,katy,,,,,,,,,female
UWngh,25,10,mal_plain,fem_sws,3,tshirt,hat,tshirt,tshirt,hat,pig,mal_plain_fem_sws,critical,1/11/2017,10:05,right,false,2769,1,1_2_1_1,word_2_word_3_word_1,far,pig,English_Speech,preschool,katy,,,,,,,,,female
