subject_id,trial_number,trial_id,plain,sws,instruction_number,sound1_item,sound2_item,sound3_item,top_image,left_image,right_image,sound_gender,trial_type,date_stamp,time_stamp,side_chosen,accuracy,rt,play_counter,order,pic_position,distance,chosen_pic,test_lang,testing_loc,tester,date_of_birth,ethnicity,native_lang,other_langs,parental_occ,dev_info,birth_order,num_siblings,gender
vsT2y,1,0,fem_plain,fem_sws,1,fireman,glasses,glasses,tractor,glasses,fireman,fem_plain_fem_sws,training,2/1/2017,9:17,right,true,3321,1,2_1_1_1,word_3_word_2_word_1,near,fireman,English_Speech,preschool,megan,,,,,,,,,male
vsT2y,1,0,fem_plain,fem_sws,2,fireman,glasses,glasses,tractor,glasses,fireman,fem_plain_fem_sws,training,2/1/2017,9:17,left,true,2361,2,2_1_1_1,word_3_word_2_word_1,near,glasses,English_Speech,preschool,megan,,,,,,,,,male
vsT2y,1,0,fem_plain,fem_sws,3,fireman,glasses,glasses,tractor,glasses,fireman,fem_plain_fem_sws,training,2/1/2017,9:17,left,true,5749,3,2_1_1_1,word_3_word_2_word_1,near,glasses,English_Speech,preschool,megan,,,,,,,,,male
vsT2y,2,4,fem_plain,fem_sws,1,strawberry,coat,flower,coat,flower,strawberry,fem_plain_fem_sws,critical,2/1/2017,9:17,right,true,2678,2,1_2_2_0,word_1_word_3_word_2,different,strawberry,English_Speech,preschool,megan,,,,,,,,,male
vsT2y,2,4,fem_plain,fem_sws,2,strawberry,coat,flower,coat,flower,strawberry,fem_plain_fem_sws,critical,2/1/2017,9:17,top_img,true,2651,2,1_2_2_0,word_1_word_3_word_2,different,coat,English_Speech,preschool,megan,,,,,,,,,male
vsT2y,2,4,fem_plain,fem_sws,3,strawberry,coat,flower,coat,flower,strawberry,fem_plain_fem_sws,critical,2/1/2017,9:17,left,true,3824,4,1_2_2_0,word_1_word_3_word_2,different,flower,English_Speech,preschool,megan,,,,,,,,,male
vsT2y,3,6,fem_plain,fem_sws,1,carrot,bird,peas,bird,peas,carrot,fem_plain_fem_sws,critical,2/1/2017,9:17,right,true,2703,2,2_1_2_0,word_1_word_2_word_3,different,carrot,English_Speech,preschool,megan,,,,,,,,,male
vsT2y,3,6,fem_plain,fem_sws,2,carrot,bird,peas,bird,peas,carrot,fem_plain_fem_sws,critical,2/1/2017,9:17,top_img,true,2068,2,2_1_2_0,word_1_word_2_word_3,different,bird,English_Speech,preschool,megan,,,,,,,,,male
vsT2y,3,6,fem_plain,fem_sws,3,carrot,bird,peas,bird,peas,carrot,fem_plain_fem_sws,critical,2/1/2017,9:17,left,true,2481,2,2_1_2_0,word_1_word_2_word_3,different,peas,English_Speech,preschool,megan,,,,,,,,,male
vsT2y,4,5,fem_plain,fem_sws,1,orange,car,mouth,car,mouth,orange,fem_plain_fem_sws,critical,2/1/2017,9:17,right,true,3833,2,2_1_1_0,word_2_word_3_word_1,different,orange,English_Speech,preschool,megan,,,,,,,,,male
vsT2y,4,5,fem_plain,fem_sws,2,orange,car,mouth,car,mouth,orange,fem_plain_fem_sws,critical,2/1/2017,9:17,top_img,true,2121,2,2_1_1_0,word_2_word_3_word_1,different,car,English_Speech,preschool,megan,,,,,,,,,male
vsT2y,4,5,fem_plain,fem_sws,3,orange,car,mouth,car,mouth,orange,fem_plain_fem_sws,critical,2/1/2017,9:17,left,true,2204,2,2_1_1_0,word_2_word_3_word_1,different,mouth,English_Speech,preschool,megan,,,,,,,,,male
vsT2y,5,17,fem_plain,fem_sws,1,hand,ambulance,hand,cake,ambulance,hand,fem_plain_fem_sws,critical,2/1/2017,9:17,right,true,2917,2,2_1_2_1,word_1_word_2_word_3,far,hand,English_Speech,preschool,megan,,,,,,,,,male
vsT2y,5,17,fem_plain,fem_sws,2,hand,ambulance,hand,cake,ambulance,hand,fem_plain_fem_sws,critical,2/1/2017,9:17,left,true,2732,2,2_1_2_1,word_1_word_2_word_3,far,ambulance,English_Speech,preschool,megan,,,,,,,,,male
vsT2y,5,17,fem_plain,fem_sws,3,hand,ambulance,hand,cake,ambulance,hand,fem_plain_fem_sws,critical,2/1/2017,9:17,top_img,false,4466,1,2_1_2_1,word_1_word_2_word_3,far,cake,English_Speech,preschool,megan,,,,,,,,,male
vsT2y,6,7,fem_plain,fem_sws,1,horse,lolly,cat,cat,lolly,horse,fem_plain_fem_sws,critical,2/1/2017,9:17,right,true,2596,2,2_1_2_0,word_3_word_1_word_2,different,horse,English_Speech,preschool,megan,,,,,,,,,male
vsT2y,6,7,fem_plain,fem_sws,2,horse,lolly,cat,cat,lolly,horse,fem_plain_fem_sws,critical,2/1/2017,9:17,left,true,3393,2,2_1_2_0,word_3_word_1_word_2,different,lolly,English_Speech,preschool,megan,,,,,,,,,male
vsT2y,6,7,fem_plain,fem_sws,3,horse,lolly,cat,cat,lolly,horse,fem_plain_fem_sws,critical,2/1/2017,9:17,top_img,true,3262,2,2_1_2_0,word_3_word_1_word_2,different,cat,English_Speech,preschool,megan,,,,,,,,,male
vsT2y,7,1,fem_plain,fem_sws,1,spoon,baby,train,spoon,baby,train,fem_plain_fem_sws,critical,2/1/2017,9:17,top_img,true,2185,2,1_2_2_0,word_1_word_2_word_3,different,spoon,English_Speech,preschool,megan,,,,,,,,,male
vsT2y,7,1,fem_plain,fem_sws,2,spoon,baby,train,spoon,baby,train,fem_plain_fem_sws,critical,2/1/2017,9:17,left,true,2593,1,1_2_2_0,word_1_word_2_word_3,different,baby,English_Speech,preschool,megan,,,,,,,,,male
vsT2y,7,1,fem_plain,fem_sws,3,spoon,baby,train,spoon,baby,train,fem_plain_fem_sws,critical,2/1/2017,9:17,right,true,2757,2,1_2_2_0,word_1_word_2_word_3,different,train,English_Speech,preschool,megan,,,,,,,,,male
vsT2y,8,3,fem_plain,fem_sws,1,telephone,trousers,nose,telephone,trousers,nose,fem_plain_fem_sws,critical,2/1/2017,9:17,top_img,true,3889,1,2_1_1_0,word_3_word_1_word_2,different,telephone,English_Speech,preschool,megan,,,,,,,,,male
vsT2y,8,3,fem_plain,fem_sws,2,telephone,trousers,nose,telephone,trousers,nose,fem_plain_fem_sws,critical,2/1/2017,9:17,left,true,2164,2,2_1_1_0,word_3_word_1_word_2,different,trousers,English_Speech,preschool,megan,,,,,,,,,male
vsT2y,8,3,fem_plain,fem_sws,3,telephone,trousers,nose,telephone,trousers,nose,fem_plain_fem_sws,critical,2/1/2017,9:17,right,true,2726,2,2_1_1_0,word_3_word_1_word_2,different,nose,English_Speech,preschool,megan,,,,,,,,,male
vsT2y,9,16,fem_plain,fem_sws,1,banana,paintbrush,chair,banana,paintbrush,chair,fem_plain_fem_sws,critical,2/1/2017,9:17,top_img,true,2801,2,2_1_1_0,word_2_word_1_word_3,different,banana,English_Speech,preschool,megan,,,,,,,,,male
vsT2y,9,16,fem_plain,fem_sws,2,banana,paintbrush,chair,banana,paintbrush,chair,fem_plain_fem_sws,critical,2/1/2017,9:17,left,true,3155,2,2_1_1_0,word_2_word_1_word_3,different,paintbrush,English_Speech,preschool,megan,,,,,,,,,male
vsT2y,9,16,fem_plain,fem_sws,3,banana,paintbrush,chair,banana,paintbrush,chair,fem_plain_fem_sws,critical,2/1/2017,9:17,right,true,2720,2,2_1_1_0,word_2_word_1_word_3,different,chair,English_Speech,preschool,megan,,,,,,,,,male
vsT2y,10,24,fem_plain,fem_sws,1,sink,socks,sink,fish,sink,socks,fem_plain_fem_sws,critical,2/1/2017,9:17,left,true,3390,2,1_2_1_1,word_2_word_1_word_3,far,sink,English_Speech,preschool,megan,,,,,,,,,male
vsT2y,10,24,fem_plain,fem_sws,2,sink,socks,sink,fish,sink,socks,fem_plain_fem_sws,critical,2/1/2017,9:17,right,true,2744,1,1_2_1_1,word_2_word_1_word_3,far,socks,English_Speech,preschool,megan,,,,,,,,,male
vsT2y,10,24,fem_plain,fem_sws,3,sink,socks,sink,fish,sink,socks,fem_plain_fem_sws,critical,2/1/2017,9:17,top_img,false,2616,2,1_2_1_1,word_2_word_1_word_3,far,fish,English_Speech,preschool,megan,,,,,,,,,male
vsT2y,11,19,fem_plain,fem_sws,1,tree,building_blocks,building_blocks,santa,tree,building_blocks,fem_plain_fem_sws,critical,2/1/2017,9:17,left,true,4771,2,2_1_1_1,word_1_word_3_word_2,near,tree,English_Speech,preschool,megan,,,,,,,,,male
vsT2y,11,19,fem_plain,fem_sws,2,tree,building_blocks,building_blocks,santa,tree,building_blocks,fem_plain_fem_sws,critical,2/1/2017,9:17,right,true,2364,2,2_1_1_1,word_1_word_3_word_2,near,building_blocks,English_Speech,preschool,megan,,,,,,,,,male
vsT2y,11,19,fem_plain,fem_sws,3,tree,building_blocks,building_blocks,santa,tree,building_blocks,fem_plain_fem_sws,critical,2/1/2017,9:17,top_img,false,4567,2,2_1_1_1,word_1_word_3_word_2,near,santa,English_Speech,preschool,megan,,,,,,,,,male
vsT2y,12,20,fem_plain,fem_sws,1,jumper,rabbit,rabbit,apple,jumper,rabbit,fem_plain_fem_sws,critical,2/1/2017,9:17,left,true,2765,1,1_2_2_1,word_3_word_1_word_2,near,jumper,English_Speech,preschool,megan,,,,,,,,,male
vsT2y,12,20,fem_plain,fem_sws,2,jumper,rabbit,rabbit,apple,jumper,rabbit,fem_plain_fem_sws,critical,2/1/2017,9:17,right,true,2393,1,1_2_2_1,word_3_word_1_word_2,near,rabbit,English_Speech,preschool,megan,,,,,,,,,male
vsT2y,12,20,fem_plain,fem_sws,3,jumper,rabbit,rabbit,apple,jumper,rabbit,fem_plain_fem_sws,critical,2/1/2017,9:17,top_img,false,6491,2,1_2_2_1,word_3_word_1_word_2,near,apple,English_Speech,preschool,megan,,,,,,,,,male
vsT2y,13,14,fem_plain,fem_sws,1,shoes,cheese,door,cheese,shoes,door,fem_plain_fem_sws,critical,2/1/2017,9:17,left,true,2886,2,2_1_1_0,word_1_word_2_word_3,different,shoes,English_Speech,preschool,megan,,,,,,,,,male
vsT2y,13,14,fem_plain,fem_sws,2,shoes,cheese,door,cheese,shoes,door,fem_plain_fem_sws,critical,2/1/2017,9:17,top_img,true,3303,2,2_1_1_0,word_1_word_2_word_3,different,cheese,English_Speech,preschool,megan,,,,,,,,,male
vsT2y,13,14,fem_plain,fem_sws,3,shoes,cheese,door,cheese,shoes,door,fem_plain_fem_sws,critical,2/1/2017,9:17,right,true,2588,2,2_1_1_0,word_1_word_2_word_3,different,door,English_Speech,preschool,megan,,,,,,,,,male
vsT2y,14,15,fem_plain,fem_sws,1,pencil,beans,pencil,pencil,beans,slide,fem_plain_fem_sws,critical,2/1/2017,9:17,top_img,true,2927,2,1_2_1_1,word_2_word_3_word_1,far,pencil,English_Speech,preschool,megan,,,,,,,,,male
vsT2y,14,15,fem_plain,fem_sws,2,pencil,beans,pencil,pencil,beans,slide,fem_plain_fem_sws,critical,2/1/2017,9:17,left,true,2004,2,1_2_1_1,word_2_word_3_word_1,far,beans,English_Speech,preschool,megan,,,,,,,,,male
vsT2y,14,15,fem_plain,fem_sws,3,pencil,beans,pencil,pencil,beans,slide,fem_plain_fem_sws,critical,2/1/2017,9:17,right,false,3470,2,1_2_1_1,word_2_word_3_word_1,far,slide,English_Speech,preschool,megan,,,,,,,,,male
vsT2y,15,11,fem_plain,fem_sws,1,cow,book,cow,lorry,book,cow,fem_plain_fem_sws,critical,2/1/2017,9:17,right,true,3468,2,2_1_2_1,word_2_word_1_word_3,far,cow,English_Speech,preschool,megan,,,,,,,,,male
vsT2y,15,11,fem_plain,fem_sws,2,cow,book,cow,lorry,book,cow,fem_plain_fem_sws,critical,2/1/2017,9:17,left,true,3057,2,2_1_2_1,word_2_word_1_word_3,far,book,English_Speech,preschool,megan,,,,,,,,,male
vsT2y,15,11,fem_plain,fem_sws,3,cow,book,cow,lorry,book,cow,fem_plain_fem_sws,critical,2/1/2017,9:17,top_img,false,3323,1,2_1_2_1,word_2_word_1_word_3,far,lorry,English_Speech,preschool,megan,,,,,,,,,male
vsT2y,16,2,fem_plain,fem_sws,1,bed,fork,fork,bed,fork,chicken,fem_plain_fem_sws,critical,2/1/2017,9:17,top_img,true,3869,2,1_2_2_1,word_1_word_3_word_2,near,bed,English_Speech,preschool,megan,,,,,,,,,male
vsT2y,16,2,fem_plain,fem_sws,2,bed,fork,fork,bed,fork,chicken,fem_plain_fem_sws,critical,2/1/2017,9:17,left,true,3232,2,1_2_2_1,word_1_word_3_word_2,near,fork,English_Speech,preschool,megan,,,,,,,,,male
vsT2y,16,2,fem_plain,fem_sws,3,bed,fork,fork,bed,fork,chicken,fem_plain_fem_sws,critical,2/1/2017,9:17,left,true,8467,2,1_2_2_1,word_1_word_3_word_2,near,fork,English_Speech,preschool,megan,,,,,,,,,male
vsT2y,17,21,fem_plain,fem_sws,1,frog,eye,sheep,sheep,frog,eye,fem_plain_fem_sws,critical,2/1/2017,9:17,left,true,3156,2,1_2_2_0,word_2_word_1_word_3,different,frog,English_Speech,preschool,megan,,,,,,,,,male
vsT2y,17,21,fem_plain,fem_sws,2,frog,eye,sheep,sheep,frog,eye,fem_plain_fem_sws,critical,2/1/2017,9:17,right,true,2874,1,1_2_2_0,word_2_word_1_word_3,different,eye,English_Speech,preschool,megan,,,,,,,,,male
vsT2y,17,21,fem_plain,fem_sws,3,frog,eye,sheep,sheep,frog,eye,fem_plain_fem_sws,critical,2/1/2017,9:17,top_img,true,3016,1,1_2_2_0,word_2_word_1_word_3,different,sheep,English_Speech,preschool,megan,,,,,,,,,male
vsT2y,18,22,fem_plain,fem_sws,1,bike,dog,bike,bike,doctor,dog,fem_plain_fem_sws,critical,2/1/2017,9:17,top_img,true,2694,2,2_1_2_1,word_1_word_3_word_2,far,bike,English_Speech,preschool,megan,,,,,,,,,male
vsT2y,18,22,fem_plain,fem_sws,2,bike,dog,bike,bike,doctor,dog,fem_plain_fem_sws,critical,2/1/2017,9:17,right,true,2862,1,2_1_2_1,word_1_word_3_word_2,far,dog,English_Speech,preschool,megan,,,,,,,,,male
vsT2y,18,22,fem_plain,fem_sws,3,bike,dog,bike,bike,doctor,dog,fem_plain_fem_sws,critical,2/1/2017,9:17,top_img,true,5668,2,2_1_2_1,word_1_word_3_word_2,far,bike,English_Speech,preschool,megan,,,,,,,,,male
vsT2y,19,18,fem_plain,fem_sws,1,raspberry,camera,camera,camera,ball,raspberry,fem_plain_fem_sws,critical,2/1/2017,9:17,right,true,3392,1,2_1_1_1,word_3_word_1_word_2,near,raspberry,English_Speech,preschool,megan,,,,,,,,,male
vsT2y,19,18,fem_plain,fem_sws,2,raspberry,camera,camera,camera,ball,raspberry,fem_plain_fem_sws,critical,2/1/2017,9:17,top_img,true,2384,1,2_1_1_1,word_3_word_1_word_2,near,camera,English_Speech,preschool,megan,,,,,,,,,male
vsT2y,19,18,fem_plain,fem_sws,3,raspberry,camera,camera,camera,ball,raspberry,fem_plain_fem_sws,critical,2/1/2017,9:17,top_img,true,3493,1,2_1_1_1,word_3_word_1_word_2,near,camera,English_Speech,preschool,megan,,,,,,,,,male
vsT2y,20,12,fem_plain,fem_sws,1,foot,yoghurt,gloves,foot,yoghurt,gloves,fem_plain_fem_sws,critical,2/1/2017,9:17,top_img,true,2162,2,2_1_1_0,word_1_word_2_word_3,different,foot,English_Speech,preschool,megan,,,,,,,,,male
vsT2y,20,12,fem_plain,fem_sws,2,foot,yoghurt,gloves,foot,yoghurt,gloves,fem_plain_fem_sws,critical,2/1/2017,9:17,left,true,2249,2,2_1_1_0,word_1_word_2_word_3,different,yoghurt,English_Speech,preschool,megan,,,,,,,,,male
vsT2y,20,12,fem_plain,fem_sws,3,foot,yoghurt,gloves,foot,yoghurt,gloves,fem_plain_fem_sws,critical,2/1/2017,9:17,right,true,3269,2,2_1_1_0,word_1_word_2_word_3,different,gloves,English_Speech,preschool,megan,,,,,,,,,male
vsT2y,21,9,fem_plain,fem_sws,1,pizza,window,pizza,window,pizza,grapes,fem_plain_fem_sws,critical,2/1/2017,9:17,left,true,2612,1,1_2_1_1,word_2_word_1_word_3,far,pizza,English_Speech,preschool,megan,,,,,,,,,male
vsT2y,21,9,fem_plain,fem_sws,2,pizza,window,pizza,window,pizza,grapes,fem_plain_fem_sws,critical,2/1/2017,9:17,top_img,true,2414,1,1_2_1_1,word_2_word_1_word_3,far,window,English_Speech,preschool,megan,,,,,,,,,male
vsT2y,21,9,fem_plain,fem_sws,3,pizza,window,pizza,window,pizza,grapes,fem_plain_fem_sws,critical,2/1/2017,9:17,left,true,4329,1,1_2_1_1,word_2_word_1_word_3,far,pizza,English_Speech,preschool,megan,,,,,,,,,male
vsT2y,22,8,fem_plain,fem_sws,1,ear,fire_engine,wellyboots,fire_engine,ear,wellyboots,fem_plain_fem_sws,critical,2/1/2017,9:17,left,true,2591,2,2_1_2_0,word_2_word_3_word_1,different,ear,English_Speech,preschool,megan,,,,,,,,,male
vsT2y,22,8,fem_plain,fem_sws,2,ear,fire_engine,wellyboots,fire_engine,ear,wellyboots,fem_plain_fem_sws,critical,2/1/2017,9:17,top_img,true,3265,2,2_1_2_0,word_2_word_3_word_1,different,fire_engine,English_Speech,preschool,megan,,,,,,,,,male
vsT2y,22,8,fem_plain,fem_sws,3,ear,fire_engine,wellyboots,fire_engine,ear,wellyboots,fem_plain_fem_sws,critical,2/1/2017,9:17,right,true,3418,1,2_1_2_0,word_2_word_3_word_1,different,wellyboots,English_Speech,preschool,megan,,,,,,,,,male
vsT2y,23,10,fem_plain,fem_sws,1,tshirt,pig,hat,hat,pig,tshirt,fem_plain_fem_sws,critical,2/1/2017,9:17,right,true,3397,2,2_1_1_0,word_3_word_1_word_2,different,tshirt,English_Speech,preschool,megan,,,,,,,,,male
vsT2y,23,10,fem_plain,fem_sws,2,tshirt,pig,hat,hat,pig,tshirt,fem_plain_fem_sws,critical,2/1/2017,9:17,left,true,2502,1,2_1_1_0,word_3_word_1_word_2,different,pig,English_Speech,preschool,megan,,,,,,,,,male
vsT2y,23,10,fem_plain,fem_sws,3,tshirt,pig,hat,hat,pig,tshirt,fem_plain_fem_sws,critical,2/1/2017,9:17,top_img,true,4392,1,2_1_1_0,word_3_word_1_word_2,different,hat,English_Speech,preschool,megan,,,,,,,,,male
vsT2y,24,13,fem_plain,fem_sws,1,toothbrush,bread,bread,toothbrush,airplane,bread,fem_plain_fem_sws,critical,2/1/2017,9:17,top_img,true,2665,1,1_2_2_1,word_1_word_2_word_3,near,toothbrush,English_Speech,preschool,megan,,,,,,,,,male
vsT2y,24,13,fem_plain,fem_sws,2,toothbrush,bread,bread,toothbrush,airplane,bread,fem_plain_fem_sws,critical,2/1/2017,9:17,right,true,2961,1,1_2_2_1,word_1_word_2_word_3,near,bread,English_Speech,preschool,megan,,,,,,,,,male
vsT2y,24,13,fem_plain,fem_sws,3,toothbrush,bread,bread,toothbrush,airplane,bread,fem_plain_fem_sws,critical,2/1/2017,9:17,left,false,5308,1,1_2_2_1,word_1_word_2_word_3,near,airplane,English_Speech,preschool,megan,,,,,,,,,male
vsT2y,25,23,fem_plain,fem_sws,1,table,bath,table,bath,teddy_bear,table,fem_plain_fem_sws,critical,2/1/2017,9:17,right,true,3270,2,1_2_1_1,word_1_word_2_word_3,far,table,English_Speech,preschool,megan,,,,,,,,,male
vsT2y,25,23,fem_plain,fem_sws,2,table,bath,table,bath,teddy_bear,table,fem_plain_fem_sws,critical,2/1/2017,9:17,top_img,true,2734,1,1_2_1_1,word_1_word_2_word_3,far,bath,English_Speech,preschool,megan,,,,,,,,,male
vsT2y,25,23,fem_plain,fem_sws,3,table,bath,table,bath,teddy_bear,table,fem_plain_fem_sws,critical,2/1/2017,9:17,right,true,5648,1,1_2_1_1,word_1_word_2_word_3,far,table,English_Speech,preschool,megan,,,,,,,,,male
