subject_id,trial_number,trial_id,plain,sws,instruction_number,sound1_item,sound2_item,sound3_item,top_image,left_image,right_image,sound_gender,trial_type,date_stamp,time_stamp,side_chosen,accuracy,rt,play_counter,order,pic_position,distance,chosen_pic,test_lang,testing_loc,tester,date_of_birth,ethnicity,native_lang,other_langs,parental_occ,dev_info,birth_order,num_siblings,gender
WehWO,1,0,fem_plain,fem_sws,1,glasses,fireman,fireman,tractor,fireman,glasses,fem_plain_fem_sws,training,1/29/2017,17:51,right,true,2274,6,1_2_2_1,word_3_word_1_word_2,near,glasses,English_Speech,pilot,hanna,2017-01-29,,,,,,,,male
WehWO,1,0,fem_plain,fem_sws,2,glasses,fireman,fireman,tractor,fireman,glasses,fem_plain_fem_sws,training,1/29/2017,17:51,left,true,2668,4,1_2_2_1,word_3_word_1_word_2,near,fireman,English_Speech,pilot,hanna,2017-01-29,,,,,,,,male
WehWO,1,0,fem_plain,fem_sws,3,glasses,fireman,fireman,tractor,fireman,glasses,fem_plain_fem_sws,training,1/29/2017,17:51,left,true,4382,4,1_2_2_1,word_3_word_1_word_2,near,fireman,English_Speech,pilot,hanna,2017-01-29,,,,,,,,male
WehWO,2,9,fem_plain,fem_sws,1,grapes,pizza,pizza,window,pizza,grapes,fem_plain_fem_sws,critical,1/29/2017,17:51,right,true,2977,2,2_1_1_1,word_2_word_1_word_3,near,grapes,English_Speech,pilot,hanna,2017-01-29,,,,,,,,male
WehWO,2,9,fem_plain,fem_sws,2,grapes,pizza,pizza,window,pizza,grapes,fem_plain_fem_sws,critical,1/29/2017,17:51,left,true,3010,2,2_1_1_1,word_2_word_1_word_3,near,pizza,English_Speech,pilot,hanna,2017-01-29,,,,,,,,male
WehWO,2,9,fem_plain,fem_sws,3,grapes,pizza,pizza,window,pizza,grapes,fem_plain_fem_sws,critical,1/29/2017,17:51,left,true,3014,2,2_1_1_1,word_2_word_1_word_3,near,pizza,English_Speech,pilot,hanna,2017-01-29,,,,,,,,male
WehWO,3,17,fem_plain,fem_sws,1,ambulance,hand,ambulance,ambulance,cake,hand,fem_plain_fem_sws,critical,1/29/2017,17:51,top_img,true,2679,2,1_2_1_1,word_2_word_1_word_3,far,ambulance,English_Speech,pilot,hanna,2017-01-29,,,,,,,,male
WehWO,3,17,fem_plain,fem_sws,2,ambulance,hand,ambulance,ambulance,cake,hand,fem_plain_fem_sws,critical,1/29/2017,17:51,right,true,3343,2,1_2_1_1,word_2_word_1_word_3,far,hand,English_Speech,pilot,hanna,2017-01-29,,,,,,,,male
WehWO,3,17,fem_plain,fem_sws,3,ambulance,hand,ambulance,ambulance,cake,hand,fem_plain_fem_sws,critical,1/29/2017,17:51,top_img,true,2456,4,1_2_1_1,word_2_word_1_word_3,far,ambulance,English_Speech,pilot,hanna,2017-01-29,,,,,,,,male
WehWO,4,15,fem_plain,fem_sws,1,pencil,beans,slide,slide,pencil,beans,fem_plain_fem_sws,critical,1/29/2017,17:51,left,true,2555,2,2_1_1_0,word_1_word_2_word_3,different,pencil,English_Speech,pilot,hanna,2017-01-29,,,,,,,,male
WehWO,4,15,fem_plain,fem_sws,2,pencil,beans,slide,slide,pencil,beans,fem_plain_fem_sws,critical,1/29/2017,17:51,right,true,2420,2,2_1_1_0,word_1_word_2_word_3,different,beans,English_Speech,pilot,hanna,2017-01-29,,,,,,,,male
WehWO,4,15,fem_plain,fem_sws,3,pencil,beans,slide,slide,pencil,beans,fem_plain_fem_sws,critical,1/29/2017,17:51,right,false,4544,4,2_1_1_0,word_1_word_2_word_3,different,beans,English_Speech,pilot,hanna,2017-01-29,,,,,,,,male
WehWO,5,22,fem_plain,fem_sws,1,doctor,bike,dog,doctor,dog,bike,fem_plain_fem_sws,critical,1/29/2017,17:51,top_img,true,3196,2,2_1_1_0,word_3_word_2_word_1,different,doctor,English_Speech,pilot,hanna,2017-01-29,,,,,,,,male
WehWO,5,22,fem_plain,fem_sws,2,doctor,bike,dog,doctor,dog,bike,fem_plain_fem_sws,critical,1/29/2017,17:51,right,true,2875,2,2_1_1_0,word_3_word_2_word_1,different,bike,English_Speech,pilot,hanna,2017-01-29,,,,,,,,male
WehWO,5,22,fem_plain,fem_sws,3,doctor,bike,dog,doctor,dog,bike,fem_plain_fem_sws,critical,1/29/2017,17:51,left,true,2410,4,2_1_1_0,word_3_word_2_word_1,different,dog,English_Speech,pilot,hanna,2017-01-29,,,,,,,,male
WehWO,6,13,fem_plain,fem_sws,1,airplane,bread,toothbrush,airplane,bread,toothbrush,fem_plain_fem_sws,critical,1/29/2017,17:51,top_img,true,2762,4,2_1_2_0,word_2_word_3_word_1,different,airplane,English_Speech,pilot,hanna,2017-01-29,,,,,,,,male
WehWO,6,13,fem_plain,fem_sws,2,airplane,bread,toothbrush,airplane,bread,toothbrush,fem_plain_fem_sws,critical,1/29/2017,17:51,left,true,4298,2,2_1_2_0,word_2_word_3_word_1,different,bread,English_Speech,pilot,hanna,2017-01-29,,,,,,,,male
WehWO,6,13,fem_plain,fem_sws,3,airplane,bread,toothbrush,airplane,bread,toothbrush,fem_plain_fem_sws,critical,1/29/2017,17:51,right,true,2741,1,2_1_2_0,word_2_word_3_word_1,different,toothbrush,English_Speech,pilot,hanna,2017-01-29,,,,,,,,male
WehWO,7,2,fem_plain,fem_sws,1,bed,chicken,chicken,chicken,fork,bed,fem_plain_fem_sws,critical,1/29/2017,17:51,right,true,3642,2,2_1_1_1,word_2_word_3_word_1,near,bed,English_Speech,pilot,hanna,2017-01-29,,,,,,,,male
WehWO,7,2,fem_plain,fem_sws,2,bed,chicken,chicken,chicken,fork,bed,fem_plain_fem_sws,critical,1/29/2017,17:51,top_img,true,2647,2,2_1_1_1,word_2_word_3_word_1,near,chicken,English_Speech,pilot,hanna,2017-01-29,,,,,,,,male
WehWO,7,2,fem_plain,fem_sws,3,bed,chicken,chicken,chicken,fork,bed,fem_plain_fem_sws,critical,1/29/2017,17:51,top_img,true,2874,1,2_1_1_1,word_2_word_3_word_1,near,chicken,English_Speech,pilot,hanna,2017-01-29,,,,,,,,male
WehWO,8,18,fem_plain,fem_sws,1,camera,ball,raspberry,ball,camera,raspberry,fem_plain_fem_sws,critical,1/29/2017,17:51,left,true,2376,2,2_1_1_0,word_1_word_3_word_2,different,camera,English_Speech,pilot,hanna,2017-01-29,,,,,,,,male
WehWO,8,18,fem_plain,fem_sws,2,camera,ball,raspberry,ball,camera,raspberry,fem_plain_fem_sws,critical,1/29/2017,17:51,top_img,true,2650,1,2_1_1_0,word_1_word_3_word_2,different,ball,English_Speech,pilot,hanna,2017-01-29,,,,,,,,male
WehWO,8,18,fem_plain,fem_sws,3,camera,ball,raspberry,ball,camera,raspberry,fem_plain_fem_sws,critical,1/29/2017,17:51,right,true,2851,2,2_1_1_0,word_1_word_3_word_2,different,raspberry,English_Speech,pilot,hanna,2017-01-29,,,,,,,,male
WehWO,9,7,fem_plain,fem_sws,1,cat,lolly,cat,horse,cat,lolly,fem_plain_fem_sws,critical,1/29/2017,17:51,left,true,2978,2,1_2_1_1,word_2_word_3_word_1,far,cat,English_Speech,pilot,hanna,2017-01-29,,,,,,,,male
WehWO,9,7,fem_plain,fem_sws,2,cat,lolly,cat,horse,cat,lolly,fem_plain_fem_sws,critical,1/29/2017,17:51,right,true,3745,2,1_2_1_1,word_2_word_3_word_1,far,lolly,English_Speech,pilot,hanna,2017-01-29,,,,,,,,male
WehWO,9,7,fem_plain,fem_sws,3,cat,lolly,cat,horse,cat,lolly,fem_plain_fem_sws,critical,1/29/2017,17:51,left,true,3239,2,1_2_1_1,word_2_word_3_word_1,far,cat,English_Speech,pilot,hanna,2017-01-29,,,,,,,,male
WehWO,10,4,fem_plain,fem_sws,1,flower,coat,strawberry,coat,flower,strawberry,fem_plain_fem_sws,critical,1/29/2017,17:51,left,true,2542,2,2_1_1_0,word_1_word_3_word_2,different,flower,English_Speech,pilot,hanna,2017-01-29,,,,,,,,male
WehWO,10,4,fem_plain,fem_sws,2,flower,coat,strawberry,coat,flower,strawberry,fem_plain_fem_sws,critical,1/29/2017,17:51,top_img,true,2709,1,2_1_1_0,word_1_word_3_word_2,different,coat,English_Speech,pilot,hanna,2017-01-29,,,,,,,,male
WehWO,10,4,fem_plain,fem_sws,3,flower,coat,strawberry,coat,flower,strawberry,fem_plain_fem_sws,critical,1/29/2017,17:51,right,true,2639,1,2_1_1_0,word_1_word_3_word_2,different,strawberry,English_Speech,pilot,hanna,2017-01-29,,,,,,,,male
WehWO,11,12,fem_plain,fem_sws,1,gloves,yoghurt,gloves,foot,yoghurt,gloves,fem_plain_fem_sws,critical,1/29/2017,17:51,right,true,3168,2,2_1_2_1,word_1_word_2_word_3,far,gloves,English_Speech,pilot,hanna,2017-01-29,,,,,,,,male
WehWO,11,12,fem_plain,fem_sws,2,gloves,yoghurt,gloves,foot,yoghurt,gloves,fem_plain_fem_sws,critical,1/29/2017,17:51,left,true,1982,2,2_1_2_1,word_1_word_2_word_3,far,yoghurt,English_Speech,pilot,hanna,2017-01-29,,,,,,,,male
WehWO,11,12,fem_plain,fem_sws,3,gloves,yoghurt,gloves,foot,yoghurt,gloves,fem_plain_fem_sws,critical,1/29/2017,17:51,right,true,3574,1,2_1_2_1,word_1_word_2_word_3,far,gloves,English_Speech,pilot,hanna,2017-01-29,,,,,,,,male
WehWO,12,14,fem_plain,fem_sws,1,door,shoes,door,door,cheese,shoes,fem_plain_fem_sws,critical,1/29/2017,17:51,top_img,true,2207,2,2_1_2_1,word_3_word_1_word_2,far,door,English_Speech,pilot,hanna,2017-01-29,,,,,,,,male
WehWO,12,14,fem_plain,fem_sws,2,door,shoes,door,door,cheese,shoes,fem_plain_fem_sws,critical,1/29/2017,17:51,right,true,2445,1,2_1_2_1,word_3_word_1_word_2,far,shoes,English_Speech,pilot,hanna,2017-01-29,,,,,,,,male
WehWO,12,14,fem_plain,fem_sws,3,door,shoes,door,door,cheese,shoes,fem_plain_fem_sws,critical,1/29/2017,17:51,top_img,true,2085,1,2_1_2_1,word_3_word_1_word_2,far,door,English_Speech,pilot,hanna,2017-01-29,,,,,,,,male
WehWO,13,10,fem_plain,fem_sws,1,hat,pig,hat,pig,tshirt,hat,fem_plain_fem_sws,critical,1/29/2017,17:51,right,true,2287,2,1_2_1_1,word_1_word_2_word_3,far,hat,English_Speech,pilot,hanna,2017-01-29,,,,,,,,male
WehWO,13,10,fem_plain,fem_sws,2,hat,pig,hat,pig,tshirt,hat,fem_plain_fem_sws,critical,1/29/2017,17:51,top_img,true,1884,2,1_2_1_1,word_1_word_2_word_3,far,pig,English_Speech,pilot,hanna,2017-01-29,,,,,,,,male
WehWO,13,10,fem_plain,fem_sws,3,hat,pig,hat,pig,tshirt,hat,fem_plain_fem_sws,critical,1/29/2017,17:51,right,true,2477,2,1_2_1_1,word_1_word_2_word_3,far,hat,English_Speech,pilot,hanna,2017-01-29,,,,,,,,male
WehWO,14,24,fem_plain,fem_sws,1,socks,fish,sink,fish,sink,socks,fem_plain_fem_sws,critical,1/29/2017,17:51,right,true,2705,2,2_1_2_0,word_2_word_1_word_3,different,socks,English_Speech,pilot,hanna,2017-01-29,,,,,,,,male
WehWO,14,24,fem_plain,fem_sws,2,socks,fish,sink,fish,sink,socks,fem_plain_fem_sws,critical,1/29/2017,17:51,top_img,true,1838,1,2_1_2_0,word_2_word_1_word_3,different,fish,English_Speech,pilot,hanna,2017-01-29,,,,,,,,male
WehWO,14,24,fem_plain,fem_sws,3,socks,fish,sink,fish,sink,socks,fem_plain_fem_sws,critical,1/29/2017,17:51,left,true,2667,2,2_1_2_0,word_2_word_1_word_3,different,sink,English_Speech,pilot,hanna,2017-01-29,,,,,,,,male
WehWO,15,1,fem_plain,fem_sws,1,baby,train,spoon,spoon,train,baby,fem_plain_fem_sws,critical,1/29/2017,17:51,right,true,2320,2,2_1_1_0,word_1_word_3_word_2,different,baby,English_Speech,pilot,hanna,2017-01-29,,,,,,,,male
WehWO,15,1,fem_plain,fem_sws,2,baby,train,spoon,spoon,train,baby,fem_plain_fem_sws,critical,1/29/2017,17:51,left,true,2867,1,2_1_1_0,word_1_word_3_word_2,different,train,English_Speech,pilot,hanna,2017-01-29,,,,,,,,male
WehWO,15,1,fem_plain,fem_sws,3,baby,train,spoon,spoon,train,baby,fem_plain_fem_sws,critical,1/29/2017,17:51,top_img,true,2886,2,2_1_1_0,word_1_word_3_word_2,different,spoon,English_Speech,pilot,hanna,2017-01-29,,,,,,,,male
WehWO,16,23,fem_plain,fem_sws,1,table,bath,teddy_bear,bath,teddy_bear,table,fem_plain_fem_sws,critical,1/29/2017,17:51,right,true,2641,2,2_1_1_0,word_1_word_2_word_3,different,table,English_Speech,pilot,hanna,2017-01-29,,,,,,,,male
WehWO,16,23,fem_plain,fem_sws,2,table,bath,teddy_bear,bath,teddy_bear,table,fem_plain_fem_sws,critical,1/29/2017,17:51,top_img,true,2718,2,2_1_1_0,word_1_word_2_word_3,different,bath,English_Speech,pilot,hanna,2017-01-29,,,,,,,,male
WehWO,16,23,fem_plain,fem_sws,3,table,bath,teddy_bear,bath,teddy_bear,table,fem_plain_fem_sws,critical,1/29/2017,17:51,left,true,2693,1,2_1_1_0,word_1_word_2_word_3,different,teddy_bear,English_Speech,pilot,hanna,2017-01-29,,,,,,,,male
WehWO,17,3,fem_plain,fem_sws,1,nose,telephone,trousers,telephone,trousers,nose,fem_plain_fem_sws,critical,1/29/2017,17:51,right,true,2660,2,2_1_2_0,word_3_word_1_word_2,different,nose,English_Speech,pilot,hanna,2017-01-29,,,,,,,,male
WehWO,17,3,fem_plain,fem_sws,2,nose,telephone,trousers,telephone,trousers,nose,fem_plain_fem_sws,critical,1/29/2017,17:51,top_img,true,3135,1,2_1_2_0,word_3_word_1_word_2,different,telephone,English_Speech,pilot,hanna,2017-01-29,,,,,,,,male
WehWO,17,3,fem_plain,fem_sws,3,nose,telephone,trousers,telephone,trousers,nose,fem_plain_fem_sws,critical,1/29/2017,17:51,left,true,2064,3,2_1_2_0,word_3_word_1_word_2,different,trousers,English_Speech,pilot,hanna,2017-01-29,,,,,,,,male
WehWO,18,20,fem_plain,fem_sws,1,rabbit,apple,apple,jumper,apple,rabbit,fem_plain_fem_sws,critical,1/29/2017,17:51,right,true,2641,2,2_1_1_1,word_1_word_3_word_2,near,rabbit,English_Speech,pilot,hanna,2017-01-29,,,,,,,,male
WehWO,18,20,fem_plain,fem_sws,2,rabbit,apple,apple,jumper,apple,rabbit,fem_plain_fem_sws,critical,1/29/2017,17:51,left,true,2171,2,2_1_1_1,word_1_word_3_word_2,near,apple,English_Speech,pilot,hanna,2017-01-29,,,,,,,,male
WehWO,18,20,fem_plain,fem_sws,3,rabbit,apple,apple,jumper,apple,rabbit,fem_plain_fem_sws,critical,1/29/2017,17:51,left,true,3693,3,2_1_1_1,word_1_word_3_word_2,near,apple,English_Speech,pilot,hanna,2017-01-29,,,,,,,,male
WehWO,19,11,fem_plain,fem_sws,1,book,lorry,cow,lorry,book,cow,fem_plain_fem_sws,critical,1/29/2017,17:51,left,true,2541,2,1_2_2_0,word_2_word_1_word_3,different,book,English_Speech,pilot,hanna,2017-01-29,,,,,,,,male
WehWO,19,11,fem_plain,fem_sws,2,book,lorry,cow,lorry,book,cow,fem_plain_fem_sws,critical,1/29/2017,17:51,top_img,true,2281,1,1_2_2_0,word_2_word_1_word_3,different,lorry,English_Speech,pilot,hanna,2017-01-29,,,,,,,,male
WehWO,19,11,fem_plain,fem_sws,3,book,lorry,cow,lorry,book,cow,fem_plain_fem_sws,critical,1/29/2017,17:51,right,true,2906,1,1_2_2_0,word_2_word_1_word_3,different,cow,English_Speech,pilot,hanna,2017-01-29,,,,,,,,male
WehWO,20,19,fem_plain,fem_sws,1,tree,santa,santa,building_blocks,tree,santa,fem_plain_fem_sws,critical,1/29/2017,17:51,left,true,2650,2,1_2_2_1,word_2_word_3_word_1,near,tree,English_Speech,pilot,hanna,2017-01-29,,,,,,,,male
WehWO,20,19,fem_plain,fem_sws,2,tree,santa,santa,building_blocks,tree,santa,fem_plain_fem_sws,critical,1/29/2017,17:51,right,true,3749,1,1_2_2_1,word_2_word_3_word_1,near,santa,English_Speech,pilot,hanna,2017-01-29,,,,,,,,male
WehWO,20,19,fem_plain,fem_sws,3,tree,santa,santa,building_blocks,tree,santa,fem_plain_fem_sws,critical,1/29/2017,17:51,right,true,3182,2,1_2_2_1,word_2_word_3_word_1,near,santa,English_Speech,pilot,hanna,2017-01-29,,,,,,,,male
WehWO,21,8,fem_plain,fem_sws,1,fire_engine,ear,ear,wellyboots,ear,fire_engine,fem_plain_fem_sws,critical,1/29/2017,17:51,right,true,3398,2,1_2_2_1,word_1_word_3_word_2,near,fire_engine,English_Speech,pilot,hanna,2017-01-29,,,,,,,,male
WehWO,21,8,fem_plain,fem_sws,2,fire_engine,ear,ear,wellyboots,ear,fire_engine,fem_plain_fem_sws,critical,1/29/2017,17:51,left,true,2129,2,1_2_2_1,word_1_word_3_word_2,near,ear,English_Speech,pilot,hanna,2017-01-29,,,,,,,,male
WehWO,21,8,fem_plain,fem_sws,3,fire_engine,ear,ear,wellyboots,ear,fire_engine,fem_plain_fem_sws,critical,1/29/2017,17:51,left,true,2146,1,1_2_2_1,word_1_word_3_word_2,near,ear,English_Speech,pilot,hanna,2017-01-29,,,,,,,,male
WehWO,22,6,fem_plain,fem_sws,1,bird,carrot,peas,peas,carrot,bird,fem_plain_fem_sws,critical,1/29/2017,17:51,right,true,1978,4,1_2_2_0,word_2_word_3_word_1,different,bird,English_Speech,pilot,hanna,2017-01-29,,,,,,,,male
WehWO,22,6,fem_plain,fem_sws,2,bird,carrot,peas,peas,carrot,bird,fem_plain_fem_sws,critical,1/29/2017,17:51,left,true,2410,2,1_2_2_0,word_2_word_3_word_1,different,carrot,English_Speech,pilot,hanna,2017-01-29,,,,,,,,male
WehWO,22,6,fem_plain,fem_sws,3,bird,carrot,peas,peas,carrot,bird,fem_plain_fem_sws,critical,1/29/2017,17:51,top_img,true,2482,2,1_2_2_0,word_2_word_3_word_1,different,peas,English_Speech,pilot,hanna,2017-01-29,,,,,,,,male
WehWO,23,5,fem_plain,fem_sws,1,car,orange,car,car,orange,mouth,fem_plain_fem_sws,critical,1/29/2017,17:51,top_img,true,2039,2,2_1_2_1,word_2_word_1_word_3,far,car,English_Speech,pilot,hanna,2017-01-29,,,,,,,,male
WehWO,23,5,fem_plain,fem_sws,2,car,orange,car,car,orange,mouth,fem_plain_fem_sws,critical,1/29/2017,17:51,left,true,5209,1,2_1_2_1,word_2_word_1_word_3,far,orange,English_Speech,pilot,hanna,2017-01-29,,,,,,,,male
WehWO,23,5,fem_plain,fem_sws,3,car,orange,car,car,orange,mouth,fem_plain_fem_sws,critical,1/29/2017,17:51,top_img,true,2643,2,2_1_2_1,word_2_word_1_word_3,far,car,English_Speech,pilot,hanna,2017-01-29,,,,,,,,male
WehWO,24,16,fem_plain,fem_sws,1,banana,chair,paintbrush,banana,paintbrush,chair,fem_plain_fem_sws,critical,1/29/2017,17:51,top_img,true,2241,2,1_2_2_0,word_2_word_1_word_3,different,banana,English_Speech,pilot,hanna,2017-01-29,,,,,,,,male
WehWO,24,16,fem_plain,fem_sws,2,banana,chair,paintbrush,banana,paintbrush,chair,fem_plain_fem_sws,critical,1/29/2017,17:51,right,true,2719,1,1_2_2_0,word_2_word_1_word_3,different,chair,English_Speech,pilot,hanna,2017-01-29,,,,,,,,male
WehWO,24,16,fem_plain,fem_sws,3,banana,chair,paintbrush,banana,paintbrush,chair,fem_plain_fem_sws,critical,1/29/2017,17:51,left,true,2915,1,1_2_2_0,word_2_word_1_word_3,different,paintbrush,English_Speech,pilot,hanna,2017-01-29,,,,,,,,male
WehWO,25,21,fem_plain,fem_sws,1,sheep,frog,sheep,eye,frog,sheep,fem_plain_fem_sws,critical,1/29/2017,17:51,right,true,2475,2,1_2_1_1,word_3_word_1_word_2,far,sheep,English_Speech,pilot,hanna,2017-01-29,,,,,,,,male
WehWO,25,21,fem_plain,fem_sws,2,sheep,frog,sheep,eye,frog,sheep,fem_plain_fem_sws,critical,1/29/2017,17:51,left,true,2883,1,1_2_1_1,word_3_word_1_word_2,far,frog,English_Speech,pilot,hanna,2017-01-29,,,,,,,,male
WehWO,25,21,fem_plain,fem_sws,3,sheep,frog,sheep,eye,frog,sheep,fem_plain_fem_sws,critical,1/29/2017,17:51,right,true,2147,2,1_2_1_1,word_3_word_1_word_2,far,sheep,English_Speech,pilot,hanna,2017-01-29,,,,,,,,male
