subject_id,trial_number,trial_id,plain,sws,instruction_number,sound1_item,sound2_item,sound3_item,top_image,left_image,right_image,sound_gender,trial_type,date_stamp,time_stamp,side_chosen,accuracy,rt,play_counter,order,pic_position,distance,chosen_pic,test_lang,testing_loc,tester,date_of_birth,ethnicity,native_lang,other_langs,parental_occ,dev_info,birth_order,num_siblings,gender
WhDLJ,1,0,mal_plain,fem_sws,1,fireman,tractor,tractor,fireman,tractor,glasses,mal_plain_fem_sws,training,2/2/2017,10:31,top_img,true,2883,2,2_1_1_1,word_1_word_3_word_2,near,fireman,English_Speech,preschool,megan,,,,,,,,,female
WhDLJ,1,0,mal_plain,fem_sws,2,fireman,tractor,tractor,fireman,tractor,glasses,mal_plain_fem_sws,training,2/2/2017,10:31,left,true,2298,1,2_1_1_1,word_1_word_3_word_2,near,tractor,English_Speech,preschool,megan,,,,,,,,,female
WhDLJ,1,0,mal_plain,fem_sws,3,fireman,tractor,tractor,fireman,tractor,glasses,mal_plain_fem_sws,training,2/2/2017,10:31,left,true,1940,6,2_1_1_1,word_1_word_3_word_2,near,tractor,English_Speech,preschool,megan,,,,,,,,,female
WhDLJ,2,13,mal_plain,fem_sws,1,airplane,bread,airplane,airplane,toothbrush,bread,mal_plain_fem_sws,critical,2/2/2017,10:31,top_img,true,2986,2,1_2_1_1,word_2_word_1_word_3,far,airplane,English_Speech,preschool,megan,,,,,,,,,female
WhDLJ,2,13,mal_plain,fem_sws,2,airplane,bread,airplane,airplane,toothbrush,bread,mal_plain_fem_sws,critical,2/2/2017,10:31,right,true,3165,2,1_2_1_1,word_2_word_1_word_3,far,bread,English_Speech,preschool,megan,,,,,,,,,female
WhDLJ,2,13,mal_plain,fem_sws,3,airplane,bread,airplane,airplane,toothbrush,bread,mal_plain_fem_sws,critical,2/2/2017,10:31,left,false,2826,2,1_2_1_1,word_2_word_1_word_3,far,toothbrush,English_Speech,preschool,megan,,,,,,,,,female
WhDLJ,3,1,mal_plain,fem_sws,1,baby,spoon,spoon,spoon,train,baby,mal_plain_fem_sws,critical,2/2/2017,10:31,right,true,2172,1,1_2_2_1,word_1_word_3_word_2,near,baby,English_Speech,preschool,megan,,,,,,,,,female
WhDLJ,3,1,mal_plain,fem_sws,2,baby,spoon,spoon,spoon,train,baby,mal_plain_fem_sws,critical,2/2/2017,10:31,top_img,true,2012,2,1_2_2_1,word_1_word_3_word_2,near,spoon,English_Speech,preschool,megan,,,,,,,,,female
WhDLJ,3,1,mal_plain,fem_sws,3,baby,spoon,spoon,spoon,train,baby,mal_plain_fem_sws,critical,2/2/2017,10:31,left,false,2636,2,1_2_2_1,word_1_word_3_word_2,near,train,English_Speech,preschool,megan,,,,,,,,,female
WhDLJ,4,2,mal_plain,fem_sws,1,bed,chicken,fork,fork,chicken,bed,mal_plain_fem_sws,critical,2/2/2017,10:31,right,true,3110,2,2_1_1_0,word_3_word_2_word_1,different,bed,English_Speech,preschool,megan,,,,,,,,,female
WhDLJ,4,2,mal_plain,fem_sws,2,bed,chicken,fork,fork,chicken,bed,mal_plain_fem_sws,critical,2/2/2017,10:31,left,true,3206,1,2_1_1_0,word_3_word_2_word_1,different,chicken,English_Speech,preschool,megan,,,,,,,,,female
WhDLJ,4,2,mal_plain,fem_sws,3,bed,chicken,fork,fork,chicken,bed,mal_plain_fem_sws,critical,2/2/2017,10:31,top_img,true,2493,2,2_1_1_0,word_3_word_2_word_1,different,fork,English_Speech,preschool,megan,,,,,,,,,female
WhDLJ,5,11,mal_plain,fem_sws,1,book,cow,book,cow,book,lorry,mal_plain_fem_sws,critical,2/2/2017,10:31,left,true,2433,2,1_2_1_1,word_3_word_1_word_2,far,book,English_Speech,preschool,megan,,,,,,,,,female
WhDLJ,5,11,mal_plain,fem_sws,2,book,cow,book,cow,book,lorry,mal_plain_fem_sws,critical,2/2/2017,10:31,top_img,true,2931,2,1_2_1_1,word_3_word_1_word_2,far,cow,English_Speech,preschool,megan,,,,,,,,,female
WhDLJ,5,11,mal_plain,fem_sws,3,book,cow,book,cow,book,lorry,mal_plain_fem_sws,critical,2/2/2017,10:31,right,false,2931,2,1_2_1_1,word_3_word_1_word_2,far,lorry,English_Speech,preschool,megan,,,,,,,,,female
WhDLJ,6,4,mal_plain,fem_sws,1,flower,strawberry,strawberry,coat,strawberry,flower,mal_plain_fem_sws,critical,2/2/2017,10:31,right,true,2109,2,2_1_1_1,word_1_word_2_word_3,near,flower,English_Speech,preschool,megan,,,,,,,,,female
WhDLJ,6,4,mal_plain,fem_sws,2,flower,strawberry,strawberry,coat,strawberry,flower,mal_plain_fem_sws,critical,2/2/2017,10:31,left,true,2349,2,2_1_1_1,word_1_word_2_word_3,near,strawberry,English_Speech,preschool,megan,,,,,,,,,female
WhDLJ,6,4,mal_plain,fem_sws,3,flower,strawberry,strawberry,coat,strawberry,flower,mal_plain_fem_sws,critical,2/2/2017,10:31,top_img,false,4053,2,2_1_1_1,word_1_word_2_word_3,near,coat,English_Speech,preschool,megan,,,,,,,,,female
WhDLJ,7,9,mal_plain,fem_sws,1,grapes,pizza,grapes,pizza,grapes,window,mal_plain_fem_sws,critical,2/2/2017,10:31,left,true,2610,2,2_1_2_1,word_1_word_3_word_2,far,grapes,English_Speech,preschool,megan,,,,,,,,,female
WhDLJ,7,9,mal_plain,fem_sws,2,grapes,pizza,grapes,pizza,grapes,window,mal_plain_fem_sws,critical,2/2/2017,10:31,top_img,true,2404,1,2_1_2_1,word_1_word_3_word_2,far,pizza,English_Speech,preschool,megan,,,,,,,,,female
WhDLJ,7,9,mal_plain,fem_sws,3,grapes,pizza,grapes,pizza,grapes,window,mal_plain_fem_sws,critical,2/2/2017,10:31,right,false,2582,3,2_1_2_1,word_1_word_3_word_2,far,window,English_Speech,preschool,megan,,,,,,,,,female
WhDLJ,8,20,mal_plain,fem_sws,1,rabbit,jumper,apple,apple,rabbit,jumper,mal_plain_fem_sws,critical,2/2/2017,10:31,left,true,2494,1,2_1_2_0,word_3_word_2_word_1,different,rabbit,English_Speech,preschool,megan,,,,,,,,,female
WhDLJ,8,20,mal_plain,fem_sws,2,rabbit,jumper,apple,apple,rabbit,jumper,mal_plain_fem_sws,critical,2/2/2017,10:31,right,true,2987,2,2_1_2_0,word_3_word_2_word_1,different,jumper,English_Speech,preschool,megan,,,,,,,,,female
WhDLJ,8,20,mal_plain,fem_sws,3,rabbit,jumper,apple,apple,rabbit,jumper,mal_plain_fem_sws,critical,2/2/2017,10:31,top_img,true,3263,2,2_1_2_0,word_3_word_2_word_1,different,apple,English_Speech,preschool,megan,,,,,,,,,female
WhDLJ,9,10,mal_plain,fem_sws,1,tshirt,hat,hat,hat,tshirt,pig,mal_plain_fem_sws,critical,2/2/2017,10:31,left,true,3430,1,1_2_2_1,word_3_word_2_word_1,near,tshirt,English_Speech,preschool,megan,,,,,,,,,female
WhDLJ,9,10,mal_plain,fem_sws,2,tshirt,hat,hat,hat,tshirt,pig,mal_plain_fem_sws,critical,2/2/2017,10:31,top_img,true,2466,2,1_2_2_1,word_3_word_2_word_1,near,hat,English_Speech,preschool,megan,,,,,,,,,female
WhDLJ,9,10,mal_plain,fem_sws,3,tshirt,hat,hat,hat,tshirt,pig,mal_plain_fem_sws,critical,2/2/2017,10:31,right,false,2919,1,1_2_2_1,word_3_word_2_word_1,near,pig,English_Speech,preschool,megan,,,,,,,,,female
WhDLJ,10,21,mal_plain,fem_sws,1,sheep,frog,eye,frog,sheep,eye,mal_plain_fem_sws,critical,2/2/2017,10:31,left,true,2790,2,1_2_2_0,word_1_word_2_word_3,different,sheep,English_Speech,preschool,megan,,,,,,,,,female
WhDLJ,10,21,mal_plain,fem_sws,2,sheep,frog,eye,frog,sheep,eye,mal_plain_fem_sws,critical,2/2/2017,10:31,top_img,true,3022,2,1_2_2_0,word_1_word_2_word_3,different,frog,English_Speech,preschool,megan,,,,,,,,,female
WhDLJ,10,21,mal_plain,fem_sws,3,sheep,frog,eye,frog,sheep,eye,mal_plain_fem_sws,critical,2/2/2017,10:31,right,true,3708,3,1_2_2_0,word_1_word_2_word_3,different,eye,English_Speech,preschool,megan,,,,,,,,,female
WhDLJ,11,24,mal_plain,fem_sws,1,sink,fish,fish,sink,fish,socks,mal_plain_fem_sws,critical,2/2/2017,10:31,top_img,true,3542,1,1_2_2_1,word_1_word_2_word_3,near,sink,English_Speech,preschool,megan,,,,,,,,,female
WhDLJ,11,24,mal_plain,fem_sws,2,sink,fish,fish,sink,fish,socks,mal_plain_fem_sws,critical,2/2/2017,10:31,left,true,2516,2,1_2_2_1,word_1_word_2_word_3,near,fish,English_Speech,preschool,megan,,,,,,,,,female
WhDLJ,11,24,mal_plain,fem_sws,3,sink,fish,fish,sink,fish,socks,mal_plain_fem_sws,critical,2/2/2017,10:31,right,false,3042,1,1_2_2_1,word_1_word_2_word_3,near,socks,English_Speech,preschool,megan,,,,,,,,,female
WhDLJ,12,3,mal_plain,fem_sws,1,trousers,telephone,nose,trousers,telephone,nose,mal_plain_fem_sws,critical,2/2/2017,10:31,top_img,true,2665,2,2_1_2_0,word_1_word_3_word_2,different,trousers,English_Speech,preschool,megan,,,,,,,,,female
WhDLJ,12,3,mal_plain,fem_sws,2,trousers,telephone,nose,trousers,telephone,nose,mal_plain_fem_sws,critical,2/2/2017,10:31,left,true,2811,2,2_1_2_0,word_1_word_3_word_2,different,telephone,English_Speech,preschool,megan,,,,,,,,,female
WhDLJ,12,3,mal_plain,fem_sws,3,trousers,telephone,nose,trousers,telephone,nose,mal_plain_fem_sws,critical,2/2/2017,10:31,right,true,2989,2,2_1_2_0,word_1_word_3_word_2,different,nose,English_Speech,preschool,megan,,,,,,,,,female
WhDLJ,13,15,mal_plain,fem_sws,1,pencil,beans,slide,slide,beans,pencil,mal_plain_fem_sws,critical,2/2/2017,10:31,right,true,3403,2,2_1_2_0,word_1_word_3_word_2,different,pencil,English_Speech,preschool,megan,,,,,,,,,female
WhDLJ,13,15,mal_plain,fem_sws,2,pencil,beans,slide,slide,beans,pencil,mal_plain_fem_sws,critical,2/2/2017,10:31,left,true,2597,2,2_1_2_0,word_1_word_3_word_2,different,beans,English_Speech,preschool,megan,,,,,,,,,female
WhDLJ,13,15,mal_plain,fem_sws,3,pencil,beans,slide,slide,beans,pencil,mal_plain_fem_sws,critical,2/2/2017,10:31,top_img,true,4286,2,2_1_2_0,word_1_word_3_word_2,different,slide,English_Speech,preschool,megan,,,,,,,,,female
WhDLJ,14,12,mal_plain,fem_sws,1,gloves,foot,yoghurt,yoghurt,gloves,foot,mal_plain_fem_sws,critical,2/2/2017,10:31,left,true,2603,2,2_1_1_0,word_2_word_3_word_1,different,gloves,English_Speech,preschool,megan,,,,,,,,,female
WhDLJ,14,12,mal_plain,fem_sws,2,gloves,foot,yoghurt,yoghurt,gloves,foot,mal_plain_fem_sws,critical,2/2/2017,10:31,right,true,2300,1,2_1_1_0,word_2_word_3_word_1,different,foot,English_Speech,preschool,megan,,,,,,,,,female
WhDLJ,14,12,mal_plain,fem_sws,3,gloves,foot,yoghurt,yoghurt,gloves,foot,mal_plain_fem_sws,critical,2/2/2017,10:31,top_img,true,3050,1,2_1_1_0,word_2_word_3_word_1,different,yoghurt,English_Speech,preschool,megan,,,,,,,,,female
WhDLJ,15,17,mal_plain,fem_sws,1,cake,hand,ambulance,cake,hand,ambulance,mal_plain_fem_sws,critical,2/2/2017,10:31,top_img,true,2645,1,1_2_2_0,word_1_word_3_word_2,different,cake,English_Speech,preschool,megan,,,,,,,,,female
WhDLJ,15,17,mal_plain,fem_sws,2,cake,hand,ambulance,cake,hand,ambulance,mal_plain_fem_sws,critical,2/2/2017,10:31,left,true,3126,1,1_2_2_0,word_1_word_3_word_2,different,hand,English_Speech,preschool,megan,,,,,,,,,female
WhDLJ,15,17,mal_plain,fem_sws,3,cake,hand,ambulance,cake,hand,ambulance,mal_plain_fem_sws,critical,2/2/2017,10:31,right,true,3553,1,1_2_2_0,word_1_word_3_word_2,different,ambulance,English_Speech,preschool,megan,,,,,,,,,female
WhDLJ,16,18,mal_plain,fem_sws,1,camera,ball,raspberry,camera,raspberry,ball,mal_plain_fem_sws,critical,2/2/2017,10:31,top_img,true,2162,2,1_2_2_0,word_3_word_2_word_1,different,camera,English_Speech,preschool,megan,,,,,,,,,female
WhDLJ,16,18,mal_plain,fem_sws,2,camera,ball,raspberry,camera,raspberry,ball,mal_plain_fem_sws,critical,2/2/2017,10:31,right,true,3026,1,1_2_2_0,word_3_word_2_word_1,different,ball,English_Speech,preschool,megan,,,,,,,,,female
WhDLJ,16,18,mal_plain,fem_sws,3,camera,ball,raspberry,camera,raspberry,ball,mal_plain_fem_sws,critical,2/2/2017,10:31,left,true,3503,2,1_2_2_0,word_3_word_2_word_1,different,raspberry,English_Speech,preschool,megan,,,,,,,,,female
WhDLJ,17,6,mal_plain,fem_sws,1,bird,peas,bird,bird,peas,carrot,mal_plain_fem_sws,critical,2/2/2017,10:31,top_img,true,3631,2,2_1_2_1,word_1_word_2_word_3,far,bird,English_Speech,preschool,megan,,,,,,,,,female
WhDLJ,17,6,mal_plain,fem_sws,2,bird,peas,bird,bird,peas,carrot,mal_plain_fem_sws,critical,2/2/2017,10:31,left,true,2367,1,2_1_2_1,word_1_word_2_word_3,far,peas,English_Speech,preschool,megan,,,,,,,,,female
WhDLJ,17,6,mal_plain,fem_sws,3,bird,peas,bird,bird,peas,carrot,mal_plain_fem_sws,critical,2/2/2017,10:31,right,false,2937,2,2_1_2_1,word_1_word_2_word_3,far,carrot,English_Speech,preschool,megan,,,,,,,,,female
WhDLJ,18,5,mal_plain,fem_sws,1,mouth,car,orange,mouth,car,orange,mal_plain_fem_sws,critical,2/2/2017,10:31,top_img,true,2263,2,2_1_1_0,word_3_word_2_word_1,different,mouth,English_Speech,preschool,megan,,,,,,,,,female
WhDLJ,18,5,mal_plain,fem_sws,2,mouth,car,orange,mouth,car,orange,mal_plain_fem_sws,critical,2/2/2017,10:31,left,true,2258,2,2_1_1_0,word_3_word_2_word_1,different,car,English_Speech,preschool,megan,,,,,,,,,female
WhDLJ,18,5,mal_plain,fem_sws,3,mouth,car,orange,mouth,car,orange,mal_plain_fem_sws,critical,2/2/2017,10:31,right,true,3049,2,2_1_1_0,word_3_word_2_word_1,different,orange,English_Speech,preschool,megan,,,,,,,,,female
WhDLJ,19,14,mal_plain,fem_sws,1,door,shoes,shoes,cheese,shoes,door,mal_plain_fem_sws,critical,2/2/2017,10:31,right,true,2486,1,2_1_1_1,word_1_word_2_word_3,near,door,English_Speech,preschool,megan,,,,,,,,,female
WhDLJ,19,14,mal_plain,fem_sws,2,door,shoes,shoes,cheese,shoes,door,mal_plain_fem_sws,critical,2/2/2017,10:31,left,true,2722,1,2_1_1_1,word_1_word_2_word_3,near,shoes,English_Speech,preschool,megan,,,,,,,,,female
WhDLJ,19,14,mal_plain,fem_sws,3,door,shoes,shoes,cheese,shoes,door,mal_plain_fem_sws,critical,2/2/2017,10:31,top_img,false,3201,1,2_1_1_1,word_1_word_2_word_3,near,cheese,English_Speech,preschool,megan,,,,,,,,,female
WhDLJ,20,7,mal_plain,fem_sws,1,lolly,horse,cat,horse,lolly,cat,mal_plain_fem_sws,critical,2/2/2017,10:31,left,true,3148,2,2_1_1_0,word_2_word_1_word_3,different,lolly,English_Speech,preschool,megan,,,,,,,,,female
WhDLJ,20,7,mal_plain,fem_sws,2,lolly,horse,cat,horse,lolly,cat,mal_plain_fem_sws,critical,2/2/2017,10:31,top_img,true,2674,3,2_1_1_0,word_2_word_1_word_3,different,horse,English_Speech,preschool,megan,,,,,,,,,female
WhDLJ,20,7,mal_plain,fem_sws,3,lolly,horse,cat,horse,lolly,cat,mal_plain_fem_sws,critical,2/2/2017,10:31,right,true,3282,3,2_1_1_0,word_2_word_1_word_3,different,cat,English_Speech,preschool,megan,,,,,,,,,female
WhDLJ,21,23,mal_plain,fem_sws,1,teddy_bear,bath,table,table,teddy_bear,bath,mal_plain_fem_sws,critical,2/2/2017,10:31,left,true,3003,2,2_1_1_0,word_3_word_2_word_1,different,teddy_bear,English_Speech,preschool,megan,,,,,,,,,female
WhDLJ,21,23,mal_plain,fem_sws,2,teddy_bear,bath,table,table,teddy_bear,bath,mal_plain_fem_sws,critical,2/2/2017,10:31,right,true,2458,2,2_1_1_0,word_3_word_2_word_1,different,bath,English_Speech,preschool,megan,,,,,,,,,female
WhDLJ,21,23,mal_plain,fem_sws,3,teddy_bear,bath,table,table,teddy_bear,bath,mal_plain_fem_sws,critical,2/2/2017,10:31,top_img,true,3667,1,2_1_1_0,word_3_word_2_word_1,different,table,English_Speech,preschool,megan,,,,,,,,,female
WhDLJ,22,8,mal_plain,fem_sws,1,fire_engine,wellyboots,fire_engine,ear,fire_engine,wellyboots,mal_plain_fem_sws,critical,2/2/2017,10:31,left,true,2702,2,2_1_2_1,word_3_word_2_word_1,far,fire_engine,English_Speech,preschool,megan,,,,,,,,,female
WhDLJ,22,8,mal_plain,fem_sws,2,fire_engine,wellyboots,fire_engine,ear,fire_engine,wellyboots,mal_plain_fem_sws,critical,2/2/2017,10:31,right,true,2273,2,2_1_2_1,word_3_word_2_word_1,far,wellyboots,English_Speech,preschool,megan,,,,,,,,,female
WhDLJ,22,8,mal_plain,fem_sws,3,fire_engine,wellyboots,fire_engine,ear,fire_engine,wellyboots,mal_plain_fem_sws,critical,2/2/2017,10:31,top_img,false,4226,1,2_1_2_1,word_3_word_2_word_1,far,ear,English_Speech,preschool,megan,,,,,,,,,female
WhDLJ,23,19,mal_plain,fem_sws,1,santa,building_blocks,tree,santa,tree,building_blocks,mal_plain_fem_sws,critical,2/2/2017,10:31,top_img,true,2858,2,2_1_1_0,word_1_word_3_word_2,different,santa,English_Speech,preschool,megan,,,,,,,,,female
WhDLJ,23,19,mal_plain,fem_sws,2,santa,building_blocks,tree,santa,tree,building_blocks,mal_plain_fem_sws,critical,2/2/2017,10:31,right,true,2686,1,2_1_1_0,word_1_word_3_word_2,different,building_blocks,English_Speech,preschool,megan,,,,,,,,,female
WhDLJ,23,19,mal_plain,fem_sws,3,santa,building_blocks,tree,santa,tree,building_blocks,mal_plain_fem_sws,critical,2/2/2017,10:31,left,true,3393,1,2_1_1_0,word_1_word_3_word_2,different,tree,English_Speech,preschool,megan,,,,,,,,,female
WhDLJ,24,16,mal_plain,fem_sws,1,banana,paintbrush,banana,chair,paintbrush,banana,mal_plain_fem_sws,critical,2/2/2017,10:31,right,true,2801,1,1_2_1_1,word_3_word_1_word_2,far,banana,English_Speech,preschool,megan,,,,,,,,,female
WhDLJ,24,16,mal_plain,fem_sws,2,banana,paintbrush,banana,chair,paintbrush,banana,mal_plain_fem_sws,critical,2/2/2017,10:31,left,true,3451,2,1_2_1_1,word_3_word_1_word_2,far,paintbrush,English_Speech,preschool,megan,,,,,,,,,female
WhDLJ,24,16,mal_plain,fem_sws,3,banana,paintbrush,banana,chair,paintbrush,banana,mal_plain_fem_sws,critical,2/2/2017,10:31,top_img,false,3705,1,1_2_1_1,word_3_word_1_word_2,far,chair,English_Speech,preschool,megan,,,,,,,,,female
WhDLJ,25,22,mal_plain,fem_sws,1,bike,dog,bike,doctor,dog,bike,mal_plain_fem_sws,critical,2/2/2017,10:31,right,true,2848,2,1_2_1_1,word_3_word_2_word_1,far,bike,English_Speech,preschool,megan,,,,,,,,,female
WhDLJ,25,22,mal_plain,fem_sws,2,bike,dog,bike,doctor,dog,bike,mal_plain_fem_sws,critical,2/2/2017,10:31,left,true,2997,1,1_2_1_1,word_3_word_2_word_1,far,dog,English_Speech,preschool,megan,,,,,,,,,female
WhDLJ,25,22,mal_plain,fem_sws,3,bike,dog,bike,doctor,dog,bike,mal_plain_fem_sws,critical,2/2/2017,10:31,top_img,false,3334,1,1_2_1_1,word_3_word_2_word_1,far,doctor,English_Speech,preschool,megan,,,,,,,,,female
