subject_id,trial_number,trial_id,plain,sws,instruction_number,sound1_item,sound2_item,sound3_item,top_image,left_image,right_image,sound_gender,trial_type,date_stamp,time_stamp,side_chosen,accuracy,rt,play_counter,order,pic_position,distance,chosen_pic,test_lang,testing_loc,tester,date_of_birth,ethnicity,native_lang,other_langs,parental_occ,dev_info,birth_order,num_siblings,gender
Wn7bL,1,0,fem_plain,fem_sws,1,fireman,glasses,glasses,glasses,fireman,tractor,fem_plain_fem_sws,training,2/1/2017,11:32,left,true,3650,6,2_1_1_1,word_2_word_1_word_3,near,fireman,English_Speech,preschool,hanna,2013-09-23,,English,,,,,0,female
Wn7bL,1,0,fem_plain,fem_sws,2,fireman,glasses,glasses,glasses,fireman,tractor,fem_plain_fem_sws,training,2/1/2017,11:32,top_img,true,3015,1,2_1_1_1,word_2_word_1_word_3,near,glasses,English_Speech,preschool,hanna,2013-09-23,,English,,,,,0,female
Wn7bL,1,0,fem_plain,fem_sws,3,fireman,glasses,glasses,glasses,fireman,tractor,fem_plain_fem_sws,training,2/1/2017,11:32,top_img,true,4946,7,2_1_1_1,word_2_word_1_word_3,near,glasses,English_Speech,preschool,hanna,2013-09-23,,English,,,,,0,female
Wn7bL,2,21,fem_plain,fem_sws,1,eye,frog,sheep,eye,frog,sheep,fem_plain_fem_sws,critical,2/1/2017,11:32,top_img,true,5666,1,1_2_2_0,word_3_word_1_word_2,different,eye,English_Speech,preschool,hanna,2013-09-23,,English,,,,,0,female
Wn7bL,2,21,fem_plain,fem_sws,2,eye,frog,sheep,eye,frog,sheep,fem_plain_fem_sws,critical,2/1/2017,11:32,left,true,4982,1,1_2_2_0,word_3_word_1_word_2,different,frog,English_Speech,preschool,hanna,2013-09-23,,English,,,,,0,female
Wn7bL,2,21,fem_plain,fem_sws,3,eye,frog,sheep,eye,frog,sheep,fem_plain_fem_sws,critical,2/1/2017,11:32,right,true,9549,8,1_2_2_0,word_3_word_1_word_2,different,sheep,English_Speech,preschool,hanna,2013-09-23,,English,,,,,0,female
Wn7bL,3,15,fem_plain,fem_sws,1,beans,slide,pencil,pencil,slide,beans,fem_plain_fem_sws,critical,2/1/2017,11:32,right,true,2117,4,2_1_1_0,word_2_word_1_word_3,different,beans,English_Speech,preschool,hanna,2013-09-23,,English,,,,,0,female
Wn7bL,3,15,fem_plain,fem_sws,2,beans,slide,pencil,pencil,slide,beans,fem_plain_fem_sws,critical,2/1/2017,11:32,left,true,3078,2,2_1_1_0,word_2_word_1_word_3,different,slide,English_Speech,preschool,hanna,2013-09-23,,English,,,,,0,female
Wn7bL,3,15,fem_plain,fem_sws,3,beans,slide,pencil,pencil,slide,beans,fem_plain_fem_sws,critical,2/1/2017,11:32,top_img,true,10516,7,2_1_1_0,word_2_word_1_word_3,different,pencil,English_Speech,preschool,hanna,2013-09-23,,English,,,,,0,female
Wn7bL,4,23,fem_plain,fem_sws,1,teddy_bear,table,bath,bath,table,teddy_bear,fem_plain_fem_sws,critical,2/1/2017,11:32,right,true,4955,2,2_1_1_0,word_1_word_3_word_2,different,teddy_bear,English_Speech,preschool,hanna,2013-09-23,,English,,,,,0,female
Wn7bL,4,23,fem_plain,fem_sws,2,teddy_bear,table,bath,bath,table,teddy_bear,fem_plain_fem_sws,critical,2/1/2017,11:32,left,true,2656,2,2_1_1_0,word_1_word_3_word_2,different,table,English_Speech,preschool,hanna,2013-09-23,,English,,,,,0,female
Wn7bL,4,23,fem_plain,fem_sws,3,teddy_bear,table,bath,bath,table,teddy_bear,fem_plain_fem_sws,critical,2/1/2017,11:32,top_img,true,7585,7,2_1_1_0,word_1_word_3_word_2,different,bath,English_Speech,preschool,hanna,2013-09-23,,English,,,,,0,female
Wn7bL,5,18,fem_plain,fem_sws,1,camera,ball,ball,camera,raspberry,ball,fem_plain_fem_sws,critical,2/1/2017,11:32,top_img,true,2849,2,2_1_1_1,word_3_word_2_word_1,near,camera,English_Speech,preschool,hanna,2013-09-23,,English,,,,,0,female
Wn7bL,5,18,fem_plain,fem_sws,2,camera,ball,ball,camera,raspberry,ball,fem_plain_fem_sws,critical,2/1/2017,11:32,right,true,2991,1,2_1_1_1,word_3_word_2_word_1,near,ball,English_Speech,preschool,hanna,2013-09-23,,English,,,,,0,female
Wn7bL,5,18,fem_plain,fem_sws,3,camera,ball,ball,camera,raspberry,ball,fem_plain_fem_sws,critical,2/1/2017,11:32,left,false,6631,6,2_1_1_1,word_3_word_2_word_1,near,raspberry,English_Speech,preschool,hanna,2013-09-23,,English,,,,,0,female
Wn7bL,6,1,fem_plain,fem_sws,1,spoon,train,baby,spoon,baby,train,fem_plain_fem_sws,critical,2/1/2017,11:32,top_img,true,4194,2,2_1_1_0,word_1_word_2_word_3,different,spoon,English_Speech,preschool,hanna,2013-09-23,,English,,,,,0,female
Wn7bL,6,1,fem_plain,fem_sws,2,spoon,train,baby,spoon,baby,train,fem_plain_fem_sws,critical,2/1/2017,11:32,right,true,2593,1,2_1_1_0,word_1_word_2_word_3,different,train,English_Speech,preschool,hanna,2013-09-23,,English,,,,,0,female
Wn7bL,6,1,fem_plain,fem_sws,3,spoon,train,baby,spoon,baby,train,fem_plain_fem_sws,critical,2/1/2017,11:32,left,true,8517,3,2_1_1_0,word_1_word_2_word_3,different,baby,English_Speech,preschool,hanna,2013-09-23,,English,,,,,0,female
Wn7bL,7,4,fem_plain,fem_sws,1,strawberry,flower,coat,strawberry,coat,flower,fem_plain_fem_sws,critical,2/1/2017,11:32,top_img,true,2563,2,2_1_1_0,word_2_word_1_word_3,different,strawberry,English_Speech,preschool,hanna,2013-09-23,,English,,,,,0,female
Wn7bL,7,4,fem_plain,fem_sws,2,strawberry,flower,coat,strawberry,coat,flower,fem_plain_fem_sws,critical,2/1/2017,11:32,right,true,2583,2,2_1_1_0,word_2_word_1_word_3,different,flower,English_Speech,preschool,hanna,2013-09-23,,English,,,,,0,female
Wn7bL,7,4,fem_plain,fem_sws,3,strawberry,flower,coat,strawberry,coat,flower,fem_plain_fem_sws,critical,2/1/2017,11:32,left,true,5397,3,2_1_1_0,word_2_word_1_word_3,different,coat,English_Speech,preschool,hanna,2013-09-23,,English,,,,,0,female
Wn7bL,8,5,fem_plain,fem_sws,1,mouth,orange,mouth,mouth,orange,car,fem_plain_fem_sws,critical,2/1/2017,11:32,top_img,true,3629,4,2_1_2_1,word_3_word_1_word_2,far,mouth,English_Speech,preschool,hanna,2013-09-23,,English,,,,,0,female
Wn7bL,8,5,fem_plain,fem_sws,2,mouth,orange,mouth,mouth,orange,car,fem_plain_fem_sws,critical,2/1/2017,11:32,left,true,3382,1,2_1_2_1,word_3_word_1_word_2,far,orange,English_Speech,preschool,hanna,2013-09-23,,English,,,,,0,female
Wn7bL,8,5,fem_plain,fem_sws,3,mouth,orange,mouth,mouth,orange,car,fem_plain_fem_sws,critical,2/1/2017,11:32,right,false,7297,2,2_1_2_1,word_3_word_1_word_2,far,car,English_Speech,preschool,hanna,2013-09-23,,English,,,,,0,female
Wn7bL,9,17,fem_plain,fem_sws,1,hand,cake,ambulance,cake,ambulance,hand,fem_plain_fem_sws,critical,2/1/2017,11:32,right,true,3893,2,2_1_2_0,word_1_word_2_word_3,different,hand,English_Speech,preschool,hanna,2013-09-23,,English,,,,,0,female
Wn7bL,9,17,fem_plain,fem_sws,2,hand,cake,ambulance,cake,ambulance,hand,fem_plain_fem_sws,critical,2/1/2017,11:32,top_img,true,2951,2,2_1_2_0,word_1_word_2_word_3,different,cake,English_Speech,preschool,hanna,2013-09-23,,English,,,,,0,female
Wn7bL,9,17,fem_plain,fem_sws,3,hand,cake,ambulance,cake,ambulance,hand,fem_plain_fem_sws,critical,2/1/2017,11:32,left,true,6037,6,2_1_2_0,word_1_word_2_word_3,different,ambulance,English_Speech,preschool,hanna,2013-09-23,,English,,,,,0,female
Wn7bL,10,3,fem_plain,fem_sws,1,telephone,trousers,nose,nose,trousers,telephone,fem_plain_fem_sws,critical,2/1/2017,11:32,right,true,4745,2,1_2_2_0,word_2_word_1_word_3,different,telephone,English_Speech,preschool,hanna,2013-09-23,,English,,,,,0,female
Wn7bL,10,3,fem_plain,fem_sws,2,telephone,trousers,nose,nose,trousers,telephone,fem_plain_fem_sws,critical,2/1/2017,11:32,left,true,2253,2,1_2_2_0,word_2_word_1_word_3,different,trousers,English_Speech,preschool,hanna,2013-09-23,,English,,,,,0,female
Wn7bL,10,3,fem_plain,fem_sws,3,telephone,trousers,nose,nose,trousers,telephone,fem_plain_fem_sws,critical,2/1/2017,11:32,top_img,true,5690,3,1_2_2_0,word_2_word_1_word_3,different,nose,English_Speech,preschool,hanna,2013-09-23,,English,,,,,0,female
Wn7bL,11,22,fem_plain,fem_sws,1,doctor,dog,doctor,bike,doctor,dog,fem_plain_fem_sws,critical,2/1/2017,11:32,left,true,4025,2,1_2_1_1,word_1_word_3_word_2,far,doctor,English_Speech,preschool,hanna,2013-09-23,,English,,,,,0,female
Wn7bL,11,22,fem_plain,fem_sws,2,doctor,dog,doctor,bike,doctor,dog,fem_plain_fem_sws,critical,2/1/2017,11:32,right,true,2634,1,1_2_1_1,word_1_word_3_word_2,far,dog,English_Speech,preschool,hanna,2013-09-23,,English,,,,,0,female
Wn7bL,11,22,fem_plain,fem_sws,3,doctor,dog,doctor,bike,doctor,dog,fem_plain_fem_sws,critical,2/1/2017,11:32,top_img,false,4913,3,1_2_1_1,word_1_word_3_word_2,far,bike,English_Speech,preschool,hanna,2013-09-23,,English,,,,,0,female
Wn7bL,12,11,fem_plain,fem_sws,1,cow,lorry,lorry,book,lorry,cow,fem_plain_fem_sws,critical,2/1/2017,11:32,right,true,3714,2,2_1_1_1,word_1_word_2_word_3,near,cow,English_Speech,preschool,hanna,2013-09-23,,English,,,,,0,female
Wn7bL,12,11,fem_plain,fem_sws,2,cow,lorry,lorry,book,lorry,cow,fem_plain_fem_sws,critical,2/1/2017,11:32,left,true,4778,1,2_1_1_1,word_1_word_2_word_3,near,lorry,English_Speech,preschool,hanna,2013-09-23,,English,,,,,0,female
Wn7bL,12,11,fem_plain,fem_sws,3,cow,lorry,lorry,book,lorry,cow,fem_plain_fem_sws,critical,2/1/2017,11:32,top_img,false,5778,1,2_1_1_1,word_1_word_2_word_3,near,book,English_Speech,preschool,hanna,2013-09-23,,English,,,,,0,female
Wn7bL,13,14,fem_plain,fem_sws,1,cheese,shoes,door,cheese,door,shoes,fem_plain_fem_sws,critical,2/1/2017,11:32,top_img,true,2453,2,2_1_2_0,word_1_word_3_word_2,different,cheese,English_Speech,preschool,hanna,2013-09-23,,English,,,,,0,female
Wn7bL,13,14,fem_plain,fem_sws,2,cheese,shoes,door,cheese,door,shoes,fem_plain_fem_sws,critical,2/1/2017,11:32,right,true,2705,2,2_1_2_0,word_1_word_3_word_2,different,shoes,English_Speech,preschool,hanna,2013-09-23,,English,,,,,0,female
Wn7bL,13,14,fem_plain,fem_sws,3,cheese,shoes,door,cheese,door,shoes,fem_plain_fem_sws,critical,2/1/2017,11:32,left,true,898,4,2_1_2_0,word_1_word_3_word_2,different,door,English_Speech,preschool,hanna,2013-09-23,,English,,,,,0,female
Wn7bL,14,24,fem_plain,fem_sws,1,fish,sink,fish,socks,fish,sink,fem_plain_fem_sws,critical,2/1/2017,11:32,left,true,3512,2,1_2_1_1,word_3_word_2_word_1,far,fish,English_Speech,preschool,hanna,2013-09-23,,English,,,,,0,female
Wn7bL,14,24,fem_plain,fem_sws,2,fish,sink,fish,socks,fish,sink,fem_plain_fem_sws,critical,2/1/2017,11:32,right,true,3173,1,1_2_1_1,word_3_word_2_word_1,far,sink,English_Speech,preschool,hanna,2013-09-23,,English,,,,,0,female
Wn7bL,14,24,fem_plain,fem_sws,3,fish,sink,fish,socks,fish,sink,fem_plain_fem_sws,critical,2/1/2017,11:32,top_img,false,5777,3,1_2_1_1,word_3_word_2_word_1,far,socks,English_Speech,preschool,hanna,2013-09-23,,English,,,,,0,female
Wn7bL,15,20,fem_plain,fem_sws,1,jumper,apple,jumper,jumper,rabbit,apple,fem_plain_fem_sws,critical,2/1/2017,11:32,top_img,true,2813,2,2_1_2_1,word_1_word_2_word_3,far,jumper,English_Speech,preschool,hanna,2013-09-23,,English,,,,,0,female
Wn7bL,15,20,fem_plain,fem_sws,2,jumper,apple,jumper,jumper,rabbit,apple,fem_plain_fem_sws,critical,2/1/2017,11:32,right,true,2724,2,2_1_2_1,word_1_word_2_word_3,far,apple,English_Speech,preschool,hanna,2013-09-23,,English,,,,,0,female
Wn7bL,15,20,fem_plain,fem_sws,3,jumper,apple,jumper,jumper,rabbit,apple,fem_plain_fem_sws,critical,2/1/2017,11:32,left,false,5245,1,2_1_2_1,word_1_word_2_word_3,far,rabbit,English_Speech,preschool,hanna,2013-09-23,,English,,,,,0,female
Wn7bL,16,19,fem_plain,fem_sws,1,santa,building_blocks,building_blocks,tree,building_blocks,santa,fem_plain_fem_sws,critical,2/1/2017,11:32,right,true,3304,2,1_2_2_1,word_3_word_2_word_1,near,santa,English_Speech,preschool,hanna,2013-09-23,,English,,,,,0,female
Wn7bL,16,19,fem_plain,fem_sws,2,santa,building_blocks,building_blocks,tree,building_blocks,santa,fem_plain_fem_sws,critical,2/1/2017,11:32,left,true,2481,2,1_2_2_1,word_3_word_2_word_1,near,building_blocks,English_Speech,preschool,hanna,2013-09-23,,English,,,,,0,female
Wn7bL,16,19,fem_plain,fem_sws,3,santa,building_blocks,building_blocks,tree,building_blocks,santa,fem_plain_fem_sws,critical,2/1/2017,11:32,top_img,false,4230,1,1_2_2_1,word_3_word_2_word_1,near,tree,English_Speech,preschool,hanna,2013-09-23,,English,,,,,0,female
Wn7bL,17,6,fem_plain,fem_sws,1,carrot,peas,bird,peas,carrot,bird,fem_plain_fem_sws,critical,2/1/2017,11:32,left,true,3023,2,2_1_2_0,word_2_word_3_word_1,different,carrot,English_Speech,preschool,hanna,2013-09-23,,English,,,,,0,female
Wn7bL,17,6,fem_plain,fem_sws,2,carrot,peas,bird,peas,carrot,bird,fem_plain_fem_sws,critical,2/1/2017,11:32,top_img,true,2674,1,2_1_2_0,word_2_word_3_word_1,different,peas,English_Speech,preschool,hanna,2013-09-23,,English,,,,,0,female
Wn7bL,17,6,fem_plain,fem_sws,3,carrot,peas,bird,peas,carrot,bird,fem_plain_fem_sws,critical,2/1/2017,11:32,right,true,369,3,2_1_2_0,word_2_word_3_word_1,different,bird,English_Speech,preschool,hanna,2013-09-23,,English,,,,,0,female
Wn7bL,18,16,fem_plain,fem_sws,1,paintbrush,banana,banana,paintbrush,chair,banana,fem_plain_fem_sws,critical,2/1/2017,11:32,top_img,true,3436,2,1_2_2_1,word_1_word_3_word_2,near,paintbrush,English_Speech,preschool,hanna,2013-09-23,,English,,,,,0,female
Wn7bL,18,16,fem_plain,fem_sws,2,paintbrush,banana,banana,paintbrush,chair,banana,fem_plain_fem_sws,critical,2/1/2017,11:32,right,true,2190,2,1_2_2_1,word_1_word_3_word_2,near,banana,English_Speech,preschool,hanna,2013-09-23,,English,,,,,0,female
Wn7bL,18,16,fem_plain,fem_sws,3,paintbrush,banana,banana,paintbrush,chair,banana,fem_plain_fem_sws,critical,2/1/2017,11:32,left,false,4413,6,1_2_2_1,word_1_word_3_word_2,near,chair,English_Speech,preschool,hanna,2013-09-23,,English,,,,,0,female
Wn7bL,19,9,fem_plain,fem_sws,1,window,grapes,window,pizza,window,grapes,fem_plain_fem_sws,critical,2/1/2017,11:32,left,true,4763,2,1_2_1_1,word_1_word_2_word_3,far,window,English_Speech,preschool,hanna,2013-09-23,,English,,,,,0,female
Wn7bL,19,9,fem_plain,fem_sws,2,window,grapes,window,pizza,window,grapes,fem_plain_fem_sws,critical,2/1/2017,11:32,right,true,2641,2,1_2_1_1,word_1_word_2_word_3,far,grapes,English_Speech,preschool,hanna,2013-09-23,,English,,,,,0,female
Wn7bL,19,9,fem_plain,fem_sws,3,window,grapes,window,pizza,window,grapes,fem_plain_fem_sws,critical,2/1/2017,11:32,top_img,false,3542,4,1_2_1_1,word_1_word_2_word_3,far,pizza,English_Speech,preschool,hanna,2013-09-23,,English,,,,,0,female
Wn7bL,20,12,fem_plain,fem_sws,1,yoghurt,gloves,foot,gloves,foot,yoghurt,fem_plain_fem_sws,critical,2/1/2017,11:32,right,true,2605,4,1_2_2_0,word_3_word_1_word_2,different,yoghurt,English_Speech,preschool,hanna,2013-09-23,,English,,,,,0,female
Wn7bL,20,12,fem_plain,fem_sws,2,yoghurt,gloves,foot,gloves,foot,yoghurt,fem_plain_fem_sws,critical,2/1/2017,11:32,top_img,true,3199,2,1_2_2_0,word_3_word_1_word_2,different,gloves,English_Speech,preschool,hanna,2013-09-23,,English,,,,,0,female
Wn7bL,20,12,fem_plain,fem_sws,3,yoghurt,gloves,foot,gloves,foot,yoghurt,fem_plain_fem_sws,critical,2/1/2017,11:32,left,true,5312,1,1_2_2_0,word_3_word_1_word_2,different,foot,English_Speech,preschool,hanna,2013-09-23,,English,,,,,0,female
Wn7bL,21,10,fem_plain,fem_sws,1,pig,tshirt,pig,pig,tshirt,hat,fem_plain_fem_sws,critical,2/1/2017,11:32,top_img,true,2654,2,2_1_2_1,word_1_word_2_word_3,far,pig,English_Speech,preschool,hanna,2013-09-23,,English,,,,,0,female
Wn7bL,21,10,fem_plain,fem_sws,2,pig,tshirt,pig,pig,tshirt,hat,fem_plain_fem_sws,critical,2/1/2017,11:32,left,true,3943,2,2_1_2_1,word_1_word_2_word_3,far,tshirt,English_Speech,preschool,hanna,2013-09-23,,English,,,,,0,female
Wn7bL,21,10,fem_plain,fem_sws,3,pig,tshirt,pig,pig,tshirt,hat,fem_plain_fem_sws,critical,2/1/2017,11:32,right,false,2628,2,2_1_2_1,word_1_word_2_word_3,far,hat,English_Speech,preschool,hanna,2013-09-23,,English,,,,,0,female
Wn7bL,22,7,fem_plain,fem_sws,1,cat,lolly,lolly,lolly,cat,horse,fem_plain_fem_sws,critical,2/1/2017,11:32,left,true,4129,2,1_2_2_1,word_1_word_3_word_2,near,cat,English_Speech,preschool,hanna,2013-09-23,,English,,,,,0,female
Wn7bL,22,7,fem_plain,fem_sws,2,cat,lolly,lolly,lolly,cat,horse,fem_plain_fem_sws,critical,2/1/2017,11:32,top_img,true,3405,2,1_2_2_1,word_1_word_3_word_2,near,lolly,English_Speech,preschool,hanna,2013-09-23,,English,,,,,0,female
Wn7bL,22,7,fem_plain,fem_sws,3,cat,lolly,lolly,lolly,cat,horse,fem_plain_fem_sws,critical,2/1/2017,11:32,right,false,2582,3,1_2_2_1,word_1_word_3_word_2,near,horse,English_Speech,preschool,hanna,2013-09-23,,English,,,,,0,female
Wn7bL,23,8,fem_plain,fem_sws,1,ear,wellyboots,fire_engine,ear,wellyboots,fire_engine,fem_plain_fem_sws,critical,2/1/2017,11:32,top_img,true,2808,2,2_1_1_0,word_3_word_1_word_2,different,ear,English_Speech,preschool,hanna,2013-09-23,,English,,,,,0,female
Wn7bL,23,8,fem_plain,fem_sws,2,ear,wellyboots,fire_engine,ear,wellyboots,fire_engine,fem_plain_fem_sws,critical,2/1/2017,11:32,left,true,3645,2,2_1_1_0,word_3_word_1_word_2,different,wellyboots,English_Speech,preschool,hanna,2013-09-23,,English,,,,,0,female
Wn7bL,23,8,fem_plain,fem_sws,3,ear,wellyboots,fire_engine,ear,wellyboots,fire_engine,fem_plain_fem_sws,critical,2/1/2017,11:32,right,true,3057,2,2_1_1_0,word_3_word_1_word_2,different,fire_engine,English_Speech,preschool,hanna,2013-09-23,,English,,,,,0,female
Wn7bL,24,13,fem_plain,fem_sws,1,airplane,bread,toothbrush,bread,toothbrush,airplane,fem_plain_fem_sws,critical,2/1/2017,11:32,right,true,4850,4,2_1_1_0,word_3_word_1_word_2,different,airplane,English_Speech,preschool,hanna,2013-09-23,,English,,,,,0,female
Wn7bL,24,13,fem_plain,fem_sws,2,airplane,bread,toothbrush,bread,toothbrush,airplane,fem_plain_fem_sws,critical,2/1/2017,11:32,top_img,true,3776,4,2_1_1_0,word_3_word_1_word_2,different,bread,English_Speech,preschool,hanna,2013-09-23,,English,,,,,0,female
Wn7bL,24,13,fem_plain,fem_sws,3,airplane,bread,toothbrush,bread,toothbrush,airplane,fem_plain_fem_sws,critical,2/1/2017,11:32,left,true,4544,3,2_1_1_0,word_3_word_1_word_2,different,toothbrush,English_Speech,preschool,hanna,2013-09-23,,English,,,,,0,female
Wn7bL,25,2,fem_plain,fem_sws,1,chicken,fork,chicken,bed,chicken,fork,fem_plain_fem_sws,critical,2/1/2017,11:32,left,true,3307,2,1_2_1_1,word_1_word_2_word_3,far,chicken,English_Speech,preschool,hanna,2013-09-23,,English,,,,,0,female
Wn7bL,25,2,fem_plain,fem_sws,2,chicken,fork,chicken,bed,chicken,fork,fem_plain_fem_sws,critical,2/1/2017,11:32,right,true,4041,2,1_2_1_1,word_1_word_2_word_3,far,fork,English_Speech,preschool,hanna,2013-09-23,,English,,,,,0,female
Wn7bL,25,2,fem_plain,fem_sws,3,chicken,fork,chicken,bed,chicken,fork,fem_plain_fem_sws,critical,2/1/2017,11:32,top_img,false,10709,1,1_2_1_1,word_1_word_2_word_3,far,bed,English_Speech,preschool,hanna,2013-09-23,,English,,,,,0,female
