subject_id,trial_number,trial_id,plain,sws,instruction_number,sound1_item,sound2_item,sound3_item,top_image,left_image,right_image,sound_gender,trial_type,date_stamp,time_stamp,side_chosen,accuracy,rt,play_counter,order,pic_position,distance,chosen_pic,test_lang,testing_loc,tester,date_of_birth,ethnicity,native_lang,other_langs,parental_occ,dev_info,birth_order,num_siblings,gender
XjE6o,1,0,mal_plain,fem_sws,1,glasses,tractor,glasses,glasses,fireman,tractor,mal_plain_fem_sws,training,1/11/2017,10:19,top_img,true,5244,1,2_1_2_1,word_2_word_1_word_3,far,glasses,English_Speech,preschool,katy,,,,,,,,,female
XjE6o,1,0,mal_plain,fem_sws,2,glasses,tractor,glasses,glasses,fireman,tractor,mal_plain_fem_sws,training,1/11/2017,10:19,right,true,2157,2,2_1_2_1,word_2_word_1_word_3,far,tractor,English_Speech,preschool,katy,,,,,,,,,female
XjE6o,1,0,mal_plain,fem_sws,3,glasses,tractor,glasses,glasses,fireman,tractor,mal_plain_fem_sws,training,1/11/2017,10:19,top_img,true,5191,7,2_1_2_1,word_2_word_1_word_3,far,glasses,English_Speech,preschool,katy,,,,,,,,,female
XjE6o,2,6,mal_plain,fem_sws,1,carrot,peas,bird,bird,peas,carrot,mal_plain_fem_sws,critical,1/11/2017,10:19,right,true,2823,2,2_1_1_0,word_1_word_2_word_3,different,carrot,English_Speech,preschool,katy,,,,,,,,,female
XjE6o,2,6,mal_plain,fem_sws,2,carrot,peas,bird,bird,peas,carrot,mal_plain_fem_sws,critical,1/11/2017,10:19,left,true,2444,2,2_1_1_0,word_1_word_2_word_3,different,peas,English_Speech,preschool,katy,,,,,,,,,female
XjE6o,2,6,mal_plain,fem_sws,3,carrot,peas,bird,bird,peas,carrot,mal_plain_fem_sws,critical,1/11/2017,10:19,top_img,true,3819,4,2_1_1_0,word_1_word_2_word_3,different,bird,English_Speech,preschool,katy,,,,,,,,,female
XjE6o,3,21,mal_plain,fem_sws,1,sheep,frog,eye,frog,sheep,eye,mal_plain_fem_sws,critical,1/11/2017,10:19,left,true,3880,2,2_1_1_0,word_1_word_2_word_3,different,sheep,English_Speech,preschool,katy,,,,,,,,,female
XjE6o,3,21,mal_plain,fem_sws,2,sheep,frog,eye,frog,sheep,eye,mal_plain_fem_sws,critical,1/11/2017,10:19,top_img,true,3320,2,2_1_1_0,word_1_word_2_word_3,different,frog,English_Speech,preschool,katy,,,,,,,,,female
XjE6o,3,21,mal_plain,fem_sws,3,sheep,frog,eye,frog,sheep,eye,mal_plain_fem_sws,critical,1/11/2017,10:19,right,true,5876,2,2_1_1_0,word_1_word_2_word_3,different,eye,English_Speech,preschool,katy,,,,,,,,,female
XjE6o,4,15,mal_plain,fem_sws,1,slide,pencil,slide,pencil,beans,slide,mal_plain_fem_sws,critical,1/11/2017,10:19,right,true,3405,1,1_2_1_1,word_2_word_3_word_1,far,slide,English_Speech,preschool,katy,,,,,,,,,female
XjE6o,4,15,mal_plain,fem_sws,2,slide,pencil,slide,pencil,beans,slide,mal_plain_fem_sws,critical,1/11/2017,10:19,top_img,true,2414,2,1_2_1_1,word_2_word_3_word_1,far,pencil,English_Speech,preschool,katy,,,,,,,,,female
XjE6o,4,15,mal_plain,fem_sws,3,slide,pencil,slide,pencil,beans,slide,mal_plain_fem_sws,critical,1/11/2017,10:19,left,false,10022,4,1_2_1_1,word_2_word_3_word_1,far,beans,English_Speech,preschool,katy,,,,,,,,,female
XjE6o,5,13,mal_plain,fem_sws,1,toothbrush,airplane,airplane,toothbrush,bread,airplane,mal_plain_fem_sws,critical,1/11/2017,10:19,top_img,true,2764,2,1_2_2_1,word_1_word_3_word_2,near,toothbrush,English_Speech,preschool,katy,,,,,,,,,female
XjE6o,5,13,mal_plain,fem_sws,2,toothbrush,airplane,airplane,toothbrush,bread,airplane,mal_plain_fem_sws,critical,1/11/2017,10:19,right,true,2156,2,1_2_2_1,word_1_word_3_word_2,near,airplane,English_Speech,preschool,katy,,,,,,,,,female
XjE6o,5,13,mal_plain,fem_sws,3,toothbrush,airplane,airplane,toothbrush,bread,airplane,mal_plain_fem_sws,critical,1/11/2017,10:19,right,true,6600,4,1_2_2_1,word_1_word_3_word_2,near,airplane,English_Speech,preschool,katy,,,,,,,,,female
XjE6o,6,1,mal_plain,fem_sws,1,spoon,train,spoon,spoon,baby,train,mal_plain_fem_sws,critical,1/11/2017,10:19,top_img,true,2412,2,2_1_2_1,word_1_word_2_word_3,far,spoon,English_Speech,preschool,katy,,,,,,,,,female
XjE6o,6,1,mal_plain,fem_sws,2,spoon,train,spoon,spoon,baby,train,mal_plain_fem_sws,critical,1/11/2017,10:19,right,true,2146,2,2_1_2_1,word_1_word_2_word_3,far,train,English_Speech,preschool,katy,,,,,,,,,female
XjE6o,6,1,mal_plain,fem_sws,3,spoon,train,spoon,spoon,baby,train,mal_plain_fem_sws,critical,1/11/2017,10:19,top_img,true,3927,2,2_1_2_1,word_1_word_2_word_3,far,spoon,English_Speech,preschool,katy,,,,,,,,,female
XjE6o,7,11,mal_plain,fem_sws,1,book,lorry,lorry,cow,lorry,book,mal_plain_fem_sws,critical,1/11/2017,10:19,right,true,3491,2,1_2_2_1,word_3_word_2_word_1,near,book,English_Speech,preschool,katy,,,,,,,,,female
XjE6o,7,11,mal_plain,fem_sws,2,book,lorry,lorry,cow,lorry,book,mal_plain_fem_sws,critical,1/11/2017,10:19,left,true,2290,2,1_2_2_1,word_3_word_2_word_1,near,lorry,English_Speech,preschool,katy,,,,,,,,,female
XjE6o,7,11,mal_plain,fem_sws,3,book,lorry,lorry,cow,lorry,book,mal_plain_fem_sws,critical,1/11/2017,10:19,left,true,4403,2,1_2_2_1,word_3_word_2_word_1,near,lorry,English_Speech,preschool,katy,,,,,,,,,female
XjE6o,8,20,mal_plain,fem_sws,1,rabbit,jumper,jumper,jumper,rabbit,apple,mal_plain_fem_sws,critical,1/11/2017,10:19,left,true,2537,2,2_1_1_1,word_1_word_2_word_3,near,rabbit,English_Speech,preschool,katy,,,,,,,,,female
XjE6o,8,20,mal_plain,fem_sws,2,rabbit,jumper,jumper,jumper,rabbit,apple,mal_plain_fem_sws,critical,1/11/2017,10:19,top_img,true,3540,2,2_1_1_1,word_1_word_2_word_3,near,jumper,English_Speech,preschool,katy,,,,,,,,,female
XjE6o,8,20,mal_plain,fem_sws,3,rabbit,jumper,jumper,jumper,rabbit,apple,mal_plain_fem_sws,critical,1/11/2017,10:19,top_img,true,3663,2,2_1_1_1,word_1_word_2_word_3,near,jumper,English_Speech,preschool,katy,,,,,,,,,female
XjE6o,9,23,mal_plain,fem_sws,1,bath,teddy_bear,bath,table,teddy_bear,bath,mal_plain_fem_sws,critical,1/11/2017,10:19,right,true,2940,2,1_2_1_1,word_3_word_2_word_1,far,bath,English_Speech,preschool,katy,,,,,,,,,female
XjE6o,9,23,mal_plain,fem_sws,2,bath,teddy_bear,bath,table,teddy_bear,bath,mal_plain_fem_sws,critical,1/11/2017,10:19,left,true,2638,2,1_2_1_1,word_3_word_2_word_1,far,teddy_bear,English_Speech,preschool,katy,,,,,,,,,female
XjE6o,9,23,mal_plain,fem_sws,3,bath,teddy_bear,bath,table,teddy_bear,bath,mal_plain_fem_sws,critical,1/11/2017,10:19,right,true,5983,2,1_2_1_1,word_3_word_2_word_1,far,bath,English_Speech,preschool,katy,,,,,,,,,female
XjE6o,10,2,mal_plain,fem_sws,1,bed,chicken,bed,chicken,fork,bed,mal_plain_fem_sws,critical,1/11/2017,10:19,right,true,2816,2,2_1_2_1,word_2_word_3_word_1,far,bed,English_Speech,preschool,katy,,,,,,,,,female
XjE6o,10,2,mal_plain,fem_sws,2,bed,chicken,bed,chicken,fork,bed,mal_plain_fem_sws,critical,1/11/2017,10:19,top_img,true,2611,2,2_1_2_1,word_2_word_3_word_1,far,chicken,English_Speech,preschool,katy,,,,,,,,,female
XjE6o,10,2,mal_plain,fem_sws,3,bed,chicken,bed,chicken,fork,bed,mal_plain_fem_sws,critical,1/11/2017,10:19,right,true,6486,2,2_1_2_1,word_2_word_3_word_1,far,bed,English_Speech,preschool,katy,,,,,,,,,female
XjE6o,11,9,mal_plain,fem_sws,1,pizza,window,pizza,window,pizza,grapes,mal_plain_fem_sws,critical,1/11/2017,10:19,left,true,4446,2,1_2_1_1,word_2_word_1_word_3,far,pizza,English_Speech,preschool,katy,,,,,,,,,female
XjE6o,11,9,mal_plain,fem_sws,2,pizza,window,pizza,window,pizza,grapes,mal_plain_fem_sws,critical,1/11/2017,10:19,top_img,true,2497,1,1_2_1_1,word_2_word_1_word_3,far,window,English_Speech,preschool,katy,,,,,,,,,female
XjE6o,11,9,mal_plain,fem_sws,3,pizza,window,pizza,window,pizza,grapes,mal_plain_fem_sws,critical,1/11/2017,10:19,left,true,4133,2,1_2_1_1,word_2_word_1_word_3,far,pizza,English_Speech,preschool,katy,,,,,,,,,female
XjE6o,12,16,mal_plain,fem_sws,1,paintbrush,chair,banana,paintbrush,banana,chair,mal_plain_fem_sws,critical,1/11/2017,10:19,top_img,true,3650,2,2_1_1_0,word_1_word_2_word_3,different,paintbrush,English_Speech,preschool,katy,,,,,,,,,female
XjE6o,12,16,mal_plain,fem_sws,2,paintbrush,chair,banana,paintbrush,banana,chair,mal_plain_fem_sws,critical,1/11/2017,10:19,right,true,3280,2,2_1_1_0,word_1_word_2_word_3,different,chair,English_Speech,preschool,katy,,,,,,,,,female
XjE6o,12,16,mal_plain,fem_sws,3,paintbrush,chair,banana,paintbrush,banana,chair,mal_plain_fem_sws,critical,1/11/2017,10:19,left,true,2639,2,2_1_1_0,word_1_word_2_word_3,different,banana,English_Speech,preschool,katy,,,,,,,,,female
XjE6o,13,12,mal_plain,fem_sws,1,yoghurt,gloves,foot,yoghurt,gloves,foot,mal_plain_fem_sws,critical,1/11/2017,10:19,top_img,true,2455,2,2_1_2_0,word_2_word_3_word_1,different,yoghurt,English_Speech,preschool,katy,,,,,,,,,female
XjE6o,13,12,mal_plain,fem_sws,2,yoghurt,gloves,foot,yoghurt,gloves,foot,mal_plain_fem_sws,critical,1/11/2017,10:19,left,true,2872,2,2_1_2_0,word_2_word_3_word_1,different,gloves,English_Speech,preschool,katy,,,,,,,,,female
XjE6o,13,12,mal_plain,fem_sws,3,yoghurt,gloves,foot,yoghurt,gloves,foot,mal_plain_fem_sws,critical,1/11/2017,10:19,right,true,3814,1,2_1_2_0,word_2_word_3_word_1,different,foot,English_Speech,preschool,katy,,,,,,,,,female
XjE6o,14,3,mal_plain,fem_sws,1,trousers,nose,telephone,telephone,trousers,nose,mal_plain_fem_sws,critical,1/11/2017,10:19,left,true,2531,2,2_1_2_0,word_3_word_1_word_2,different,trousers,English_Speech,preschool,katy,,,,,,,,,female
XjE6o,14,3,mal_plain,fem_sws,2,trousers,nose,telephone,telephone,trousers,nose,mal_plain_fem_sws,critical,1/11/2017,10:19,right,true,2640,2,2_1_2_0,word_3_word_1_word_2,different,nose,English_Speech,preschool,katy,,,,,,,,,female
XjE6o,14,3,mal_plain,fem_sws,3,trousers,nose,telephone,telephone,trousers,nose,mal_plain_fem_sws,critical,1/11/2017,10:19,right,false,3987,2,2_1_2_0,word_3_word_1_word_2,different,nose,English_Speech,preschool,katy,,,,,,,,,female
XjE6o,15,5,mal_plain,fem_sws,1,mouth,orange,car,orange,mouth,car,mal_plain_fem_sws,critical,1/11/2017,10:19,left,true,3312,4,2_1_1_0,word_1_word_3_word_2,different,mouth,English_Speech,preschool,katy,,,,,,,,,female
XjE6o,15,5,mal_plain,fem_sws,2,mouth,orange,car,orange,mouth,car,mal_plain_fem_sws,critical,1/11/2017,10:19,top_img,true,5757,2,2_1_1_0,word_1_word_3_word_2,different,orange,English_Speech,preschool,katy,,,,,,,,,female
XjE6o,15,5,mal_plain,fem_sws,3,mouth,orange,car,orange,mouth,car,mal_plain_fem_sws,critical,1/11/2017,10:19,right,true,2347,4,2_1_1_0,word_1_word_3_word_2,different,car,English_Speech,preschool,katy,,,,,,,,,female
XjE6o,16,4,mal_plain,fem_sws,1,flower,strawberry,strawberry,coat,flower,strawberry,mal_plain_fem_sws,critical,1/11/2017,10:19,left,true,2895,2,1_2_2_1,word_1_word_3_word_2,near,flower,English_Speech,preschool,katy,,,,,,,,,female
XjE6o,16,4,mal_plain,fem_sws,2,flower,strawberry,strawberry,coat,flower,strawberry,mal_plain_fem_sws,critical,1/11/2017,10:19,right,true,2475,2,1_2_2_1,word_1_word_3_word_2,near,strawberry,English_Speech,preschool,katy,,,,,,,,,female
XjE6o,16,4,mal_plain,fem_sws,3,flower,strawberry,strawberry,coat,flower,strawberry,mal_plain_fem_sws,critical,1/11/2017,10:19,right,true,2609,3,1_2_2_1,word_1_word_3_word_2,near,strawberry,English_Speech,preschool,katy,,,,,,,,,female
XjE6o,17,22,mal_plain,fem_sws,1,doctor,bike,dog,bike,doctor,dog,mal_plain_fem_sws,critical,1/11/2017,10:19,left,true,2690,2,2_1_1_0,word_1_word_3_word_2,different,doctor,English_Speech,preschool,katy,,,,,,,,,female
XjE6o,17,22,mal_plain,fem_sws,2,doctor,bike,dog,bike,doctor,dog,mal_plain_fem_sws,critical,1/11/2017,10:19,top_img,true,2418,2,2_1_1_0,word_1_word_3_word_2,different,bike,English_Speech,preschool,katy,,,,,,,,,female
XjE6o,17,22,mal_plain,fem_sws,3,doctor,bike,dog,bike,doctor,dog,mal_plain_fem_sws,critical,1/11/2017,10:19,right,true,2894,1,2_1_1_0,word_1_word_3_word_2,different,dog,English_Speech,preschool,katy,,,,,,,,,female
XjE6o,18,14,mal_plain,fem_sws,1,shoes,door,cheese,cheese,shoes,door,mal_plain_fem_sws,critical,1/11/2017,10:19,left,true,2168,2,2_1_1_0,word_1_word_2_word_3,different,shoes,English_Speech,preschool,katy,,,,,,,,,female
XjE6o,18,14,mal_plain,fem_sws,2,shoes,door,cheese,cheese,shoes,door,mal_plain_fem_sws,critical,1/11/2017,10:19,right,true,2416,2,2_1_1_0,word_1_word_2_word_3,different,door,English_Speech,preschool,katy,,,,,,,,,female
XjE6o,18,14,mal_plain,fem_sws,3,shoes,door,cheese,cheese,shoes,door,mal_plain_fem_sws,critical,1/11/2017,10:19,top_img,true,2401,1,2_1_1_0,word_1_word_2_word_3,different,cheese,English_Speech,preschool,katy,,,,,,,,,female
XjE6o,19,17,mal_plain,fem_sws,1,hand,cake,cake,ambulance,cake,hand,mal_plain_fem_sws,critical,1/11/2017,10:19,right,true,4065,2,2_1_1_1,word_2_word_1_word_3,near,hand,English_Speech,preschool,katy,,,,,,,,,female
XjE6o,19,17,mal_plain,fem_sws,2,hand,cake,cake,ambulance,cake,hand,mal_plain_fem_sws,critical,1/11/2017,10:19,left,true,3341,2,2_1_1_1,word_2_word_1_word_3,near,cake,English_Speech,preschool,katy,,,,,,,,,female
XjE6o,19,17,mal_plain,fem_sws,3,hand,cake,cake,ambulance,cake,hand,mal_plain_fem_sws,critical,1/11/2017,10:19,left,true,3582,2,2_1_1_1,word_2_word_1_word_3,near,cake,English_Speech,preschool,katy,,,,,,,,,female
XjE6o,20,24,mal_plain,fem_sws,1,socks,sink,fish,sink,fish,socks,mal_plain_fem_sws,critical,1/11/2017,10:19,right,true,2397,2,1_2_2_0,word_1_word_2_word_3,different,socks,English_Speech,preschool,katy,,,,,,,,,female
XjE6o,20,24,mal_plain,fem_sws,2,socks,sink,fish,sink,fish,socks,mal_plain_fem_sws,critical,1/11/2017,10:19,top_img,true,3463,2,1_2_2_0,word_1_word_2_word_3,different,sink,English_Speech,preschool,katy,,,,,,,,,female
XjE6o,20,24,mal_plain,fem_sws,3,socks,sink,fish,sink,fish,socks,mal_plain_fem_sws,critical,1/11/2017,10:19,left,true,2008,2,1_2_2_0,word_1_word_2_word_3,different,fish,English_Speech,preschool,katy,,,,,,,,,female
XjE6o,21,8,mal_plain,fem_sws,1,wellyboots,ear,fire_engine,wellyboots,fire_engine,ear,mal_plain_fem_sws,critical,1/11/2017,10:19,top_img,true,2576,2,2_1_2_0,word_1_word_2_word_3,different,wellyboots,English_Speech,preschool,katy,,,,,,,,,female
XjE6o,21,8,mal_plain,fem_sws,2,wellyboots,ear,fire_engine,wellyboots,fire_engine,ear,mal_plain_fem_sws,critical,1/11/2017,10:19,right,true,2152,1,2_1_2_0,word_1_word_2_word_3,different,ear,English_Speech,preschool,katy,,,,,,,,,female
XjE6o,21,8,mal_plain,fem_sws,3,wellyboots,ear,fire_engine,wellyboots,fire_engine,ear,mal_plain_fem_sws,critical,1/11/2017,10:19,left,true,3223,1,2_1_2_0,word_1_word_2_word_3,different,fire_engine,English_Speech,preschool,katy,,,,,,,,,female
XjE6o,22,10,mal_plain,fem_sws,1,pig,hat,tshirt,pig,tshirt,hat,mal_plain_fem_sws,critical,1/11/2017,10:19,top_img,true,3715,2,1_2_2_0,word_1_word_2_word_3,different,pig,English_Speech,preschool,katy,,,,,,,,,female
XjE6o,22,10,mal_plain,fem_sws,2,pig,hat,tshirt,pig,tshirt,hat,mal_plain_fem_sws,critical,1/11/2017,10:19,right,true,1911,2,1_2_2_0,word_1_word_2_word_3,different,hat,English_Speech,preschool,katy,,,,,,,,,female
XjE6o,22,10,mal_plain,fem_sws,3,pig,hat,tshirt,pig,tshirt,hat,mal_plain_fem_sws,critical,1/11/2017,10:19,left,true,5243,4,1_2_2_0,word_1_word_2_word_3,different,tshirt,English_Speech,preschool,katy,,,,,,,,,female
XjE6o,23,18,mal_plain,fem_sws,1,ball,camera,camera,ball,raspberry,camera,mal_plain_fem_sws,critical,1/11/2017,10:19,top_img,true,2616,2,2_1_1_1,word_1_word_2_word_3,near,ball,English_Speech,preschool,katy,,,,,,,,,female
XjE6o,23,18,mal_plain,fem_sws,2,ball,camera,camera,ball,raspberry,camera,mal_plain_fem_sws,critical,1/11/2017,10:19,right,true,2050,2,2_1_1_1,word_1_word_2_word_3,near,camera,English_Speech,preschool,katy,,,,,,,,,female
XjE6o,23,18,mal_plain,fem_sws,3,ball,camera,camera,ball,raspberry,camera,mal_plain_fem_sws,critical,1/11/2017,10:19,right,true,2696,2,2_1_1_1,word_1_word_2_word_3,near,camera,English_Speech,preschool,katy,,,,,,,,,female
XjE6o,24,19,mal_plain,fem_sws,1,tree,santa,building_blocks,building_blocks,tree,santa,mal_plain_fem_sws,critical,1/11/2017,10:19,left,true,4672,2,1_2_2_0,word_2_word_3_word_1,different,tree,English_Speech,preschool,katy,,,,,,,,,female
XjE6o,24,19,mal_plain,fem_sws,2,tree,santa,building_blocks,building_blocks,tree,santa,mal_plain_fem_sws,critical,1/11/2017,10:19,right,true,2539,2,1_2_2_0,word_2_word_3_word_1,different,santa,English_Speech,preschool,katy,,,,,,,,,female
XjE6o,24,19,mal_plain,fem_sws,3,tree,santa,building_blocks,building_blocks,tree,santa,mal_plain_fem_sws,critical,1/11/2017,10:19,top_img,true,2948,1,1_2_2_0,word_2_word_3_word_1,different,building_blocks,English_Speech,preschool,katy,,,,,,,,,female
XjE6o,25,7,mal_plain,fem_sws,1,lolly,cat,lolly,lolly,cat,horse,mal_plain_fem_sws,critical,1/11/2017,10:19,top_img,true,2738,2,1_2_1_1,word_1_word_3_word_2,far,lolly,English_Speech,preschool,katy,,,,,,,,,female
XjE6o,25,7,mal_plain,fem_sws,2,lolly,cat,lolly,lolly,cat,horse,mal_plain_fem_sws,critical,1/11/2017,10:19,left,true,2773,2,1_2_1_1,word_1_word_3_word_2,far,cat,English_Speech,preschool,katy,,,,,,,,,female
XjE6o,25,7,mal_plain,fem_sws,3,lolly,cat,lolly,lolly,cat,horse,mal_plain_fem_sws,critical,1/11/2017,10:19,right,false,2367,2,1_2_1_1,word_1_word_3_word_2,far,horse,English_Speech,preschool,katy,,,,,,,,,female
