subject_id,trial_number,trial_id,plain,sws,instruction_number,sound1_item,sound2_item,sound3_item,top_image,left_image,right_image,sound_gender,trial_type,date_stamp,time_stamp,side_chosen,accuracy,rt,play_counter,order,pic_position,distance,chosen_pic,test_lang,testing_loc,tester,date_of_birth,ethnicity,native_lang,other_langs,parental_occ,dev_info,birth_order,num_siblings,gender
zmte4,1,0,mal_plain,mal_sws,1,fireman,tractor,fireman,tractor,fireman,glasses,mal_plain_mal_sws,training,2/2/2017,10:10,left,true,3117,2,1_2_1_1,word_3_word_1_word_2,far,fireman,English_Speech,preschool,katy,,,,,,,,,female
zmte4,1,0,mal_plain,mal_sws,2,fireman,tractor,fireman,tractor,fireman,glasses,mal_plain_mal_sws,training,2/2/2017,10:10,top_img,true,2538,2,1_2_1_1,word_3_word_1_word_2,far,tractor,English_Speech,preschool,katy,,,,,,,,,female
zmte4,1,0,mal_plain,mal_sws,3,fireman,tractor,fireman,tractor,fireman,glasses,mal_plain_mal_sws,training,2/2/2017,10:10,left,true,1369,6,1_2_1_1,word_3_word_1_word_2,far,fireman,English_Speech,preschool,katy,,,,,,,,,female
zmte4,2,1,mal_plain,mal_sws,1,train,baby,spoon,spoon,train,baby,mal_plain_mal_sws,critical,2/2/2017,10:10,left,true,2874,2,2_1_1_0,word_1_word_3_word_2,different,train,English_Speech,preschool,katy,,,,,,,,,female
zmte4,2,1,mal_plain,mal_sws,2,train,baby,spoon,spoon,train,baby,mal_plain_mal_sws,critical,2/2/2017,10:10,right,true,2235,2,2_1_1_0,word_1_word_3_word_2,different,baby,English_Speech,preschool,katy,,,,,,,,,female
zmte4,2,1,mal_plain,mal_sws,3,train,baby,spoon,spoon,train,baby,mal_plain_mal_sws,critical,2/2/2017,10:10,top_img,true,7436,2,2_1_1_0,word_1_word_3_word_2,different,spoon,English_Speech,preschool,katy,,,,,,,,,female
zmte4,3,7,mal_plain,mal_sws,1,horse,cat,lolly,cat,lolly,horse,mal_plain_mal_sws,critical,2/2/2017,10:10,right,true,3128,2,2_1_1_0,word_3_word_1_word_2,different,horse,English_Speech,preschool,katy,,,,,,,,,female
zmte4,3,7,mal_plain,mal_sws,2,horse,cat,lolly,cat,lolly,horse,mal_plain_mal_sws,critical,2/2/2017,10:10,top_img,true,3729,3,2_1_1_0,word_3_word_1_word_2,different,cat,English_Speech,preschool,katy,,,,,,,,,female
zmte4,3,7,mal_plain,mal_sws,3,horse,cat,lolly,cat,lolly,horse,mal_plain_mal_sws,critical,2/2/2017,10:10,left,true,3194,2,2_1_1_0,word_3_word_1_word_2,different,lolly,English_Speech,preschool,katy,,,,,,,,,female
zmte4,4,19,mal_plain,mal_sws,1,tree,santa,building_blocks,santa,building_blocks,tree,mal_plain_mal_sws,critical,2/2/2017,10:10,right,true,2860,1,2_1_2_0,word_1_word_2_word_3,different,tree,English_Speech,preschool,katy,,,,,,,,,female
zmte4,4,19,mal_plain,mal_sws,2,tree,santa,building_blocks,santa,building_blocks,tree,mal_plain_mal_sws,critical,2/2/2017,10:10,top_img,true,2715,2,2_1_2_0,word_1_word_2_word_3,different,santa,English_Speech,preschool,katy,,,,,,,,,female
zmte4,4,19,mal_plain,mal_sws,3,tree,santa,building_blocks,santa,building_blocks,tree,mal_plain_mal_sws,critical,2/2/2017,10:10,left,true,2243,2,2_1_2_0,word_1_word_2_word_3,different,building_blocks,English_Speech,preschool,katy,,,,,,,,,female
zmte4,5,24,mal_plain,mal_sws,1,socks,sink,fish,socks,sink,fish,mal_plain_mal_sws,critical,2/2/2017,10:10,top_img,true,2649,2,1_2_2_0,word_3_word_1_word_2,different,socks,English_Speech,preschool,katy,,,,,,,,,female
zmte4,5,24,mal_plain,mal_sws,2,socks,sink,fish,socks,sink,fish,mal_plain_mal_sws,critical,2/2/2017,10:10,left,true,3215,1,1_2_2_0,word_3_word_1_word_2,different,sink,English_Speech,preschool,katy,,,,,,,,,female
zmte4,5,24,mal_plain,mal_sws,3,socks,sink,fish,socks,sink,fish,mal_plain_mal_sws,critical,2/2/2017,10:10,right,true,3634,2,1_2_2_0,word_3_word_1_word_2,different,fish,English_Speech,preschool,katy,,,,,,,,,female
zmte4,6,21,mal_plain,mal_sws,1,sheep,frog,frog,eye,frog,sheep,mal_plain_mal_sws,critical,2/2/2017,10:10,right,true,3841,2,2_1_1_1,word_3_word_1_word_2,near,sheep,English_Speech,preschool,katy,,,,,,,,,female
zmte4,6,21,mal_plain,mal_sws,2,sheep,frog,frog,eye,frog,sheep,mal_plain_mal_sws,critical,2/2/2017,10:10,left,true,2966,2,2_1_1_1,word_3_word_1_word_2,near,frog,English_Speech,preschool,katy,,,,,,,,,female
zmte4,6,21,mal_plain,mal_sws,3,sheep,frog,frog,eye,frog,sheep,mal_plain_mal_sws,critical,2/2/2017,10:10,top_img,false,5137,2,2_1_1_1,word_3_word_1_word_2,near,eye,English_Speech,preschool,katy,,,,,,,,,female
zmte4,7,4,mal_plain,mal_sws,1,flower,strawberry,coat,coat,flower,strawberry,mal_plain_mal_sws,critical,2/2/2017,10:10,left,true,3838,2,2_1_1_0,word_1_word_3_word_2,different,flower,English_Speech,preschool,katy,,,,,,,,,female
zmte4,7,4,mal_plain,mal_sws,2,flower,strawberry,coat,coat,flower,strawberry,mal_plain_mal_sws,critical,2/2/2017,10:10,right,true,2735,2,2_1_1_0,word_1_word_3_word_2,different,strawberry,English_Speech,preschool,katy,,,,,,,,,female
zmte4,7,4,mal_plain,mal_sws,3,flower,strawberry,coat,coat,flower,strawberry,mal_plain_mal_sws,critical,2/2/2017,10:10,top_img,true,2980,1,2_1_1_0,word_1_word_3_word_2,different,coat,English_Speech,preschool,katy,,,,,,,,,female
zmte4,8,10,mal_plain,mal_sws,1,hat,tshirt,tshirt,tshirt,hat,pig,mal_plain_mal_sws,critical,2/2/2017,10:10,left,true,3372,2,1_2_2_1,word_2_word_3_word_1,near,hat,English_Speech,preschool,katy,,,,,,,,,female
zmte4,8,10,mal_plain,mal_sws,2,hat,tshirt,tshirt,tshirt,hat,pig,mal_plain_mal_sws,critical,2/2/2017,10:10,top_img,true,2865,2,1_2_2_1,word_2_word_3_word_1,near,tshirt,English_Speech,preschool,katy,,,,,,,,,female
zmte4,8,10,mal_plain,mal_sws,3,hat,tshirt,tshirt,tshirt,hat,pig,mal_plain_mal_sws,critical,2/2/2017,10:10,right,false,7824,5,1_2_2_1,word_2_word_3_word_1,near,pig,English_Speech,preschool,katy,,,,,,,,,female
zmte4,9,14,mal_plain,mal_sws,1,shoes,door,cheese,shoes,cheese,door,mal_plain_mal_sws,critical,2/2/2017,10:10,top_img,true,3103,3,1_2_2_0,word_2_word_1_word_3,different,shoes,English_Speech,preschool,katy,,,,,,,,,female
zmte4,9,14,mal_plain,mal_sws,2,shoes,door,cheese,shoes,cheese,door,mal_plain_mal_sws,critical,2/2/2017,10:10,right,true,2618,1,1_2_2_0,word_2_word_1_word_3,different,door,English_Speech,preschool,katy,,,,,,,,,female
zmte4,9,14,mal_plain,mal_sws,3,shoes,door,cheese,shoes,cheese,door,mal_plain_mal_sws,critical,2/2/2017,10:10,top_img,false,11451,2,1_2_2_0,word_2_word_1_word_3,different,shoes,English_Speech,preschool,katy,,,,,,,,,female
zmte4,10,22,mal_plain,mal_sws,1,bike,doctor,bike,bike,doctor,dog,mal_plain_mal_sws,critical,2/2/2017,10:10,top_img,true,3035,2,2_1_2_1,word_1_word_3_word_2,far,bike,English_Speech,preschool,katy,,,,,,,,,female
zmte4,10,22,mal_plain,mal_sws,2,bike,doctor,bike,bike,doctor,dog,mal_plain_mal_sws,critical,2/2/2017,10:10,left,true,3312,1,2_1_2_1,word_1_word_3_word_2,far,doctor,English_Speech,preschool,katy,,,,,,,,,female
zmte4,10,22,mal_plain,mal_sws,3,bike,doctor,bike,bike,doctor,dog,mal_plain_mal_sws,critical,2/2/2017,10:10,right,false,5860,1,2_1_2_1,word_1_word_3_word_2,far,dog,English_Speech,preschool,katy,,,,,,,,,female
zmte4,11,15,mal_plain,mal_sws,1,pencil,beans,beans,slide,pencil,beans,mal_plain_mal_sws,critical,2/2/2017,10:10,left,true,2233,2,2_1_1_1,word_1_word_2_word_3,near,pencil,English_Speech,preschool,katy,,,,,,,,,female
zmte4,11,15,mal_plain,mal_sws,2,pencil,beans,beans,slide,pencil,beans,mal_plain_mal_sws,critical,2/2/2017,10:10,right,true,2347,1,2_1_1_1,word_1_word_2_word_3,near,beans,English_Speech,preschool,katy,,,,,,,,,female
zmte4,11,15,mal_plain,mal_sws,3,pencil,beans,beans,slide,pencil,beans,mal_plain_mal_sws,critical,2/2/2017,10:10,top_img,false,8142,2,2_1_1_1,word_1_word_2_word_3,near,slide,English_Speech,preschool,katy,,,,,,,,,female
zmte4,12,8,mal_plain,mal_sws,1,fire_engine,ear,fire_engine,ear,wellyboots,fire_engine,mal_plain_mal_sws,critical,2/2/2017,10:10,right,true,3876,2,1_2_1_1,word_3_word_1_word_2,far,fire_engine,English_Speech,preschool,katy,,,,,,,,,female
zmte4,12,8,mal_plain,mal_sws,2,fire_engine,ear,fire_engine,ear,wellyboots,fire_engine,mal_plain_mal_sws,critical,2/2/2017,10:10,top_img,true,2361,2,1_2_1_1,word_3_word_1_word_2,far,ear,English_Speech,preschool,katy,,,,,,,,,female
zmte4,12,8,mal_plain,mal_sws,3,fire_engine,ear,fire_engine,ear,wellyboots,fire_engine,mal_plain_mal_sws,critical,2/2/2017,10:10,left,false,4203,2,1_2_1_1,word_3_word_1_word_2,far,wellyboots,English_Speech,preschool,katy,,,,,,,,,female
zmte4,13,20,mal_plain,mal_sws,1,rabbit,jumper,apple,apple,rabbit,jumper,mal_plain_mal_sws,critical,2/2/2017,10:10,left,true,2498,2,2_1_1_0,word_3_word_2_word_1,different,rabbit,English_Speech,preschool,katy,,,,,,,,,female
zmte4,13,20,mal_plain,mal_sws,2,rabbit,jumper,apple,apple,rabbit,jumper,mal_plain_mal_sws,critical,2/2/2017,10:10,right,true,2290,1,2_1_1_0,word_3_word_2_word_1,different,jumper,English_Speech,preschool,katy,,,,,,,,,female
zmte4,13,20,mal_plain,mal_sws,3,rabbit,jumper,apple,apple,rabbit,jumper,mal_plain_mal_sws,critical,2/2/2017,10:10,top_img,true,3436,2,2_1_1_0,word_3_word_2_word_1,different,apple,English_Speech,preschool,katy,,,,,,,,,female
zmte4,14,5,mal_plain,mal_sws,1,mouth,orange,mouth,mouth,car,orange,mal_plain_mal_sws,critical,2/2/2017,10:10,top_img,true,1995,2,2_1_2_1,word_3_word_2_word_1,far,mouth,English_Speech,preschool,katy,,,,,,,,,female
zmte4,14,5,mal_plain,mal_sws,2,mouth,orange,mouth,mouth,car,orange,mal_plain_mal_sws,critical,2/2/2017,10:10,right,true,2850,2,2_1_2_1,word_3_word_2_word_1,far,orange,English_Speech,preschool,katy,,,,,,,,,female
zmte4,14,5,mal_plain,mal_sws,3,mouth,orange,mouth,mouth,car,orange,mal_plain_mal_sws,critical,2/2/2017,10:10,left,false,6521,2,2_1_2_1,word_3_word_2_word_1,far,car,English_Speech,preschool,katy,,,,,,,,,female
zmte4,15,13,mal_plain,mal_sws,1,toothbrush,airplane,airplane,bread,airplane,toothbrush,mal_plain_mal_sws,critical,2/2/2017,10:10,right,true,3286,2,2_1_1_1,word_3_word_2_word_1,near,toothbrush,English_Speech,preschool,katy,,,,,,,,,female
zmte4,15,13,mal_plain,mal_sws,2,toothbrush,airplane,airplane,bread,airplane,toothbrush,mal_plain_mal_sws,critical,2/2/2017,10:10,left,true,2223,2,2_1_1_1,word_3_word_2_word_1,near,airplane,English_Speech,preschool,katy,,,,,,,,,female
zmte4,15,13,mal_plain,mal_sws,3,toothbrush,airplane,airplane,bread,airplane,toothbrush,mal_plain_mal_sws,critical,2/2/2017,10:10,top_img,false,4872,2,2_1_1_1,word_3_word_2_word_1,near,bread,English_Speech,preschool,katy,,,,,,,,,female
zmte4,16,23,mal_plain,mal_sws,1,bath,table,teddy_bear,bath,teddy_bear,table,mal_plain_mal_sws,critical,2/2/2017,10:10,top_img,true,2846,1,2_1_2_0,word_1_word_2_word_3,different,bath,English_Speech,preschool,katy,,,,,,,,,female
zmte4,16,23,mal_plain,mal_sws,2,bath,table,teddy_bear,bath,teddy_bear,table,mal_plain_mal_sws,critical,2/2/2017,10:10,right,true,2410,2,2_1_2_0,word_1_word_2_word_3,different,table,English_Speech,preschool,katy,,,,,,,,,female
zmte4,16,23,mal_plain,mal_sws,3,bath,table,teddy_bear,bath,teddy_bear,table,mal_plain_mal_sws,critical,2/2/2017,10:10,left,true,3097,2,2_1_2_0,word_1_word_2_word_3,different,teddy_bear,English_Speech,preschool,katy,,,,,,,,,female
zmte4,17,12,mal_plain,mal_sws,1,foot,yoghurt,yoghurt,foot,yoghurt,gloves,mal_plain_mal_sws,critical,2/2/2017,10:10,top_img,true,3065,2,1_2_2_1,word_1_word_2_word_3,near,foot,English_Speech,preschool,katy,,,,,,,,,female
zmte4,17,12,mal_plain,mal_sws,2,foot,yoghurt,yoghurt,foot,yoghurt,gloves,mal_plain_mal_sws,critical,2/2/2017,10:10,left,true,2709,2,1_2_2_1,word_1_word_2_word_3,near,yoghurt,English_Speech,preschool,katy,,,,,,,,,female
zmte4,17,12,mal_plain,mal_sws,3,foot,yoghurt,yoghurt,foot,yoghurt,gloves,mal_plain_mal_sws,critical,2/2/2017,10:10,right,false,5541,3,1_2_2_1,word_1_word_2_word_3,near,gloves,English_Speech,preschool,katy,,,,,,,,,female
zmte4,18,3,mal_plain,mal_sws,1,trousers,nose,telephone,telephone,nose,trousers,mal_plain_mal_sws,critical,2/2/2017,10:10,right,true,2950,1,2_1_1_0,word_3_word_2_word_1,different,trousers,English_Speech,preschool,katy,,,,,,,,,female
zmte4,18,3,mal_plain,mal_sws,2,trousers,nose,telephone,telephone,nose,trousers,mal_plain_mal_sws,critical,2/2/2017,10:10,left,true,2524,2,2_1_1_0,word_3_word_2_word_1,different,nose,English_Speech,preschool,katy,,,,,,,,,female
zmte4,18,3,mal_plain,mal_sws,3,trousers,nose,telephone,telephone,nose,trousers,mal_plain_mal_sws,critical,2/2/2017,10:10,top_img,true,2865,2,2_1_1_0,word_3_word_2_word_1,different,telephone,English_Speech,preschool,katy,,,,,,,,,female
zmte4,19,11,mal_plain,mal_sws,1,lorry,book,lorry,cow,lorry,book,mal_plain_mal_sws,critical,2/2/2017,10:10,left,true,3373,2,1_2_1_1,word_3_word_2_word_1,far,lorry,English_Speech,preschool,katy,,,,,,,,,female
zmte4,19,11,mal_plain,mal_sws,2,lorry,book,lorry,cow,lorry,book,mal_plain_mal_sws,critical,2/2/2017,10:10,right,true,2420,1,1_2_1_1,word_3_word_2_word_1,far,book,English_Speech,preschool,katy,,,,,,,,,female
zmte4,19,11,mal_plain,mal_sws,3,lorry,book,lorry,cow,lorry,book,mal_plain_mal_sws,critical,2/2/2017,10:10,top_img,false,2528,1,1_2_1_1,word_3_word_2_word_1,far,cow,English_Speech,preschool,katy,,,,,,,,,female
zmte4,20,17,mal_plain,mal_sws,1,cake,hand,hand,cake,hand,ambulance,mal_plain_mal_sws,critical,2/2/2017,10:10,top_img,true,2387,2,1_2_2_1,word_1_word_3_word_2,near,cake,English_Speech,preschool,katy,,,,,,,,,female
zmte4,20,17,mal_plain,mal_sws,2,cake,hand,hand,cake,hand,ambulance,mal_plain_mal_sws,critical,2/2/2017,10:10,left,true,3509,5,1_2_2_1,word_1_word_3_word_2,near,hand,English_Speech,preschool,katy,,,,,,,,,female
zmte4,20,17,mal_plain,mal_sws,3,cake,hand,hand,cake,hand,ambulance,mal_plain_mal_sws,critical,2/2/2017,10:10,right,false,3423,2,1_2_2_1,word_1_word_3_word_2,near,ambulance,English_Speech,preschool,katy,,,,,,,,,female
zmte4,21,9,mal_plain,mal_sws,1,window,pizza,grapes,pizza,window,grapes,mal_plain_mal_sws,critical,2/2/2017,10:10,left,true,2426,2,1_2_2_0,word_1_word_2_word_3,different,window,English_Speech,preschool,katy,,,,,,,,,female
zmte4,21,9,mal_plain,mal_sws,2,window,pizza,grapes,pizza,window,grapes,mal_plain_mal_sws,critical,2/2/2017,10:10,top_img,true,2140,2,1_2_2_0,word_1_word_2_word_3,different,pizza,English_Speech,preschool,katy,,,,,,,,,female
zmte4,21,9,mal_plain,mal_sws,3,window,pizza,grapes,pizza,window,grapes,mal_plain_mal_sws,critical,2/2/2017,10:10,right,true,1712,2,1_2_2_0,word_1_word_2_word_3,different,grapes,English_Speech,preschool,katy,,,,,,,,,female
zmte4,22,6,mal_plain,mal_sws,1,carrot,peas,bird,peas,carrot,bird,mal_plain_mal_sws,critical,2/2/2017,10:10,left,true,3666,2,2_1_2_0,word_2_word_3_word_1,different,carrot,English_Speech,preschool,katy,,,,,,,,,female
zmte4,22,6,mal_plain,mal_sws,2,carrot,peas,bird,peas,carrot,bird,mal_plain_mal_sws,critical,2/2/2017,10:10,top_img,true,2593,2,2_1_2_0,word_2_word_3_word_1,different,peas,English_Speech,preschool,katy,,,,,,,,,female
zmte4,22,6,mal_plain,mal_sws,3,carrot,peas,bird,peas,carrot,bird,mal_plain_mal_sws,critical,2/2/2017,10:10,right,true,2448,2,2_1_2_0,word_2_word_3_word_1,different,bird,English_Speech,preschool,katy,,,,,,,,,female
zmte4,23,18,mal_plain,mal_sws,1,ball,raspberry,camera,raspberry,camera,ball,mal_plain_mal_sws,critical,2/2/2017,10:10,right,true,3154,2,2_1_1_0,word_2_word_3_word_1,different,ball,English_Speech,preschool,katy,,,,,,,,,female
zmte4,23,18,mal_plain,mal_sws,2,ball,raspberry,camera,raspberry,camera,ball,mal_plain_mal_sws,critical,2/2/2017,10:10,top_img,true,3243,2,2_1_1_0,word_2_word_3_word_1,different,raspberry,English_Speech,preschool,katy,,,,,,,,,female
zmte4,23,18,mal_plain,mal_sws,3,ball,raspberry,camera,raspberry,camera,ball,mal_plain_mal_sws,critical,2/2/2017,10:10,left,true,2488,1,2_1_1_0,word_2_word_3_word_1,different,camera,English_Speech,preschool,katy,,,,,,,,,female
zmte4,24,16,mal_plain,mal_sws,1,chair,paintbrush,chair,paintbrush,chair,banana,mal_plain_mal_sws,critical,2/2/2017,10:10,left,true,3132,2,2_1_2_1,word_1_word_3_word_2,far,chair,English_Speech,preschool,katy,,,,,,,,,female
zmte4,24,16,mal_plain,mal_sws,2,chair,paintbrush,chair,paintbrush,chair,banana,mal_plain_mal_sws,critical,2/2/2017,10:10,top_img,true,3142,2,2_1_2_1,word_1_word_3_word_2,far,paintbrush,English_Speech,preschool,katy,,,,,,,,,female
zmte4,24,16,mal_plain,mal_sws,3,chair,paintbrush,chair,paintbrush,chair,banana,mal_plain_mal_sws,critical,2/2/2017,10:10,right,false,2703,2,2_1_2_1,word_1_word_3_word_2,far,banana,English_Speech,preschool,katy,,,,,,,,,female
zmte4,25,2,mal_plain,mal_sws,1,fork,bed,fork,chicken,bed,fork,mal_plain_mal_sws,critical,2/2/2017,10:10,top_img,false,3288,2,1_2_1_1,word_2_word_1_word_3,far,chicken,English_Speech,preschool,katy,,,,,,,,,female
zmte4,25,2,mal_plain,mal_sws,2,fork,bed,fork,chicken,bed,fork,mal_plain_mal_sws,critical,2/2/2017,10:10,left,true,3430,2,1_2_1_1,word_2_word_1_word_3,far,bed,English_Speech,preschool,katy,,,,,,,,,female
zmte4,25,2,mal_plain,mal_sws,3,fork,bed,fork,chicken,bed,fork,mal_plain_mal_sws,critical,2/2/2017,10:10,right,true,4448,2,1_2_1_1,word_2_word_1_word_3,far,fork,English_Speech,preschool,katy,,,,,,,,,female
