subject_id,trial_number,trial_id,plain,sws,instruction_number,sound1_item,sound2_item,sound3_item,top_image,left_image,right_image,sound_gender,trial_type,date_stamp,time_stamp,side_chosen,accuracy,rt,play_counter,order,pic_position,distance,chosen_pic,test_lang,testing_loc,tester,date_of_birth,ethnicity,native_lang,other_langs,parental_occ,dev_info,birth_order,num_siblings,gender
BhmYV,1,0,mal_plain,fem_sws,1,glasses,fireman,glasses,glasses,tractor,fireman,mal_plain_fem_sws,training,2/13/2017,12:58,top_img,true,2637,3,2_1_2_1,word_2_word_3_word_1,far,glasses,Italian_Speech,adult,katy,,,,,,,,,female
BhmYV,1,0,mal_plain,fem_sws,2,glasses,fireman,glasses,glasses,tractor,fireman,mal_plain_fem_sws,training,2/13/2017,12:58,right,true,3234,1,2_1_2_1,word_2_word_3_word_1,far,fireman,Italian_Speech,adult,katy,,,,,,,,,female
BhmYV,1,0,mal_plain,fem_sws,3,glasses,fireman,glasses,glasses,tractor,fireman,mal_plain_fem_sws,training,2/13/2017,12:58,left,false,3723,1,2_1_2_1,word_2_word_3_word_1,far,tractor,Italian_Speech,adult,katy,,,,,,,,,female
BhmYV,2,8,mal_plain,fem_sws,1,ear,fire_engine,wellboots,ear,wellboots,fire_engine,mal_plain_fem_sws,critical,2/13/2017,12:58,top_img,true,2984,1,1_2_2_0,word_3_word_1_word_2,different,ear,Italian_Speech,adult,katy,,,,,,,,,female
BhmYV,2,8,mal_plain,fem_sws,2,ear,fire_engine,wellboots,ear,wellboots,fire_engine,mal_plain_fem_sws,critical,2/13/2017,12:58,right,true,6984,1,1_2_2_0,word_3_word_1_word_2,different,fire_engine,Italian_Speech,adult,katy,,,,,,,,,female
BhmYV,2,8,mal_plain,fem_sws,3,ear,fire_engine,wellboots,ear,wellboots,fire_engine,mal_plain_fem_sws,critical,2/13/2017,12:58,top_img,false,4040,1,1_2_2_0,word_3_word_1_word_2,different,ear,Italian_Speech,adult,katy,,,,,,,,,female
BhmYV,3,21,mal_plain,fem_sws,1,sheep,eye,frog,frog,eye,sheep,mal_plain_fem_sws,critical,2/13/2017,12:58,top_img,false,5992,2,2_1_1_0,word_1_word_3_word_2,different,frog,Italian_Speech,adult,katy,,,,,,,,,female
BhmYV,3,21,mal_plain,fem_sws,2,sheep,eye,frog,frog,eye,sheep,mal_plain_fem_sws,critical,2/13/2017,12:58,left,true,3580,4,2_1_1_0,word_1_word_3_word_2,different,eye,Italian_Speech,adult,katy,,,,,,,,,female
BhmYV,3,21,mal_plain,fem_sws,3,sheep,eye,frog,frog,eye,sheep,mal_plain_fem_sws,critical,2/13/2017,12:58,right,false,3458,1,2_1_1_0,word_1_word_3_word_2,different,sheep,Italian_Speech,adult,katy,,,,,,,,,female
BhmYV,4,6,mal_plain,fem_sws,1,peas,bird,peas,peas,bird,carrot,mal_plain_fem_sws,critical,2/13/2017,12:58,top_img,true,2999,2,1_2_1_1,word_2_word_1_word_3,far,peas,Italian_Speech,adult,katy,,,,,,,,,female
BhmYV,4,6,mal_plain,fem_sws,2,peas,bird,peas,peas,bird,carrot,mal_plain_fem_sws,critical,2/13/2017,12:58,left,true,3166,1,1_2_1_1,word_2_word_1_word_3,far,bird,Italian_Speech,adult,katy,,,,,,,,,female
BhmYV,4,6,mal_plain,fem_sws,3,peas,bird,peas,peas,bird,carrot,mal_plain_fem_sws,critical,2/13/2017,12:58,left,false,4970,1,1_2_1_1,word_2_word_1_word_3,far,bird,Italian_Speech,adult,katy,,,,,,,,,female
BhmYV,5,24,mal_plain,fem_sws,1,socks,sink,fish,fish,sink,socks,mal_plain_fem_sws,critical,2/13/2017,12:58,right,true,5726,2,2_1_2_0,word_2_word_1_word_3,different,socks,Italian_Speech,adult,katy,,,,,,,,,female
BhmYV,5,24,mal_plain,fem_sws,2,socks,sink,fish,fish,sink,socks,mal_plain_fem_sws,critical,2/13/2017,12:58,top_img,false,3169,2,2_1_2_0,word_2_word_1_word_3,different,fish,Italian_Speech,adult,katy,,,,,,,,,female
BhmYV,5,24,mal_plain,fem_sws,3,socks,sink,fish,fish,sink,socks,mal_plain_fem_sws,critical,2/13/2017,12:58,top_img,true,3603,1,2_1_2_0,word_2_word_1_word_3,different,fish,Italian_Speech,adult,katy,,,,,,,,,female
BhmYV,6,18,mal_plain,fem_sws,1,raspberry,camera,ball,ball,raspberry,camera,mal_plain_fem_sws,critical,2/13/2017,12:58,left,true,4843,1,2_1_1_0,word_1_word_2_word_3,different,raspberry,Italian_Speech,adult,katy,,,,,,,,,female
BhmYV,6,18,mal_plain,fem_sws,2,raspberry,camera,ball,ball,raspberry,camera,mal_plain_fem_sws,critical,2/13/2017,12:58,right,true,2875,2,2_1_1_0,word_1_word_2_word_3,different,camera,Italian_Speech,adult,katy,,,,,,,,,female
BhmYV,6,18,mal_plain,fem_sws,3,raspberry,camera,ball,ball,raspberry,camera,mal_plain_fem_sws,critical,2/13/2017,12:58,top_img,true,3337,1,2_1_1_0,word_1_word_2_word_3,different,ball,Italian_Speech,adult,katy,,,,,,,,,female
BhmYV,7,16,mal_plain,fem_sws,1,paintbrush,banana,paintbrush,chair,banana,paintbrush,mal_plain_fem_sws,critical,2/13/2017,12:58,right,true,5224,2,1_2_1_1,word_3_word_2_word_1,far,paintbrush,Italian_Speech,adult,katy,,,,,,,,,female
BhmYV,7,16,mal_plain,fem_sws,2,paintbrush,banana,paintbrush,chair,banana,paintbrush,mal_plain_fem_sws,critical,2/13/2017,12:58,left,true,2866,1,1_2_1_1,word_3_word_2_word_1,far,banana,Italian_Speech,adult,katy,,,,,,,,,female
BhmYV,7,16,mal_plain,fem_sws,3,paintbrush,banana,paintbrush,chair,banana,paintbrush,mal_plain_fem_sws,critical,2/13/2017,12:58,top_img,false,3347,1,1_2_1_1,word_3_word_2_word_1,far,chair,Italian_Speech,adult,katy,,,,,,,,,female
BhmYV,8,2,mal_plain,fem_sws,1,chicken,fork,bed,bed,fork,chicken,mal_plain_fem_sws,critical,2/13/2017,12:58,left,false,4470,1,2_1_1_0,word_1_word_3_word_2,different,fork,Italian_Speech,adult,katy,,,,,,,,,female
BhmYV,8,2,mal_plain,fem_sws,2,chicken,fork,bed,bed,fork,chicken,mal_plain_fem_sws,critical,2/13/2017,12:58,left,true,2682,1,2_1_1_0,word_1_word_3_word_2,different,fork,Italian_Speech,adult,katy,,,,,,,,,female
BhmYV,8,2,mal_plain,fem_sws,3,chicken,fork,bed,bed,fork,chicken,mal_plain_fem_sws,critical,2/13/2017,12:58,right,false,3852,1,2_1_1_0,word_1_word_3_word_2,different,chicken,Italian_Speech,adult,katy,,,,,,,,,female
BhmYV,9,22,mal_plain,fem_sws,1,bike,doctor,doctor,doctor,bike,dog,mal_plain_fem_sws,critical,2/13/2017,12:58,left,true,3620,1,2_1_1_1,word_3_word_1_word_2,near,bike,Italian_Speech,adult,katy,,,,,,,,,female
BhmYV,9,22,mal_plain,fem_sws,2,bike,doctor,doctor,doctor,bike,dog,mal_plain_fem_sws,critical,2/13/2017,12:58,top_img,true,2934,2,2_1_1_1,word_3_word_1_word_2,near,doctor,Italian_Speech,adult,katy,,,,,,,,,female
BhmYV,9,22,mal_plain,fem_sws,3,bike,doctor,doctor,doctor,bike,dog,mal_plain_fem_sws,critical,2/13/2017,12:58,top_img,true,3239,1,2_1_1_1,word_3_word_1_word_2,near,doctor,Italian_Speech,adult,katy,,,,,,,,,female
BhmYV,10,12,mal_plain,fem_sws,1,yoghurt,gloves,foot,foot,yoghurt,gloves,mal_plain_fem_sws,critical,2/13/2017,12:58,left,true,2983,1,1_2_2_0,word_1_word_2_word_3,different,yoghurt,Italian_Speech,adult,katy,,,,,,,,,female
BhmYV,10,12,mal_plain,fem_sws,2,yoghurt,gloves,foot,foot,yoghurt,gloves,mal_plain_fem_sws,critical,2/13/2017,12:58,top_img,false,6264,1,1_2_2_0,word_1_word_2_word_3,different,foot,Italian_Speech,adult,katy,,,,,,,,,female
BhmYV,10,12,mal_plain,fem_sws,3,yoghurt,gloves,foot,foot,yoghurt,gloves,mal_plain_fem_sws,critical,2/13/2017,12:58,right,false,3072,2,1_2_2_0,word_1_word_2_word_3,different,gloves,Italian_Speech,adult,katy,,,,,,,,,female
BhmYV,11,7,mal_plain,fem_sws,1,horse,lolly,lolly,horse,lolly,cat,mal_plain_fem_sws,critical,2/13/2017,12:58,top_img,true,4456,1,2_1_1_1,word_2_word_1_word_3,near,horse,Italian_Speech,adult,katy,,,,,,,,,female
BhmYV,11,7,mal_plain,fem_sws,2,horse,lolly,lolly,horse,lolly,cat,mal_plain_fem_sws,critical,2/13/2017,12:58,left,true,3924,1,2_1_1_1,word_2_word_1_word_3,near,lolly,Italian_Speech,adult,katy,,,,,,,,,female
BhmYV,11,7,mal_plain,fem_sws,3,horse,lolly,lolly,horse,lolly,cat,mal_plain_fem_sws,critical,2/13/2017,12:58,left,true,4162,1,2_1_1_1,word_2_word_1_word_3,near,lolly,Italian_Speech,adult,katy,,,,,,,,,female
BhmYV,12,9,mal_plain,fem_sws,1,grapes,window,pizza,window,pizza,grapes,mal_plain_fem_sws,critical,2/13/2017,12:58,right,true,4405,2,2_1_1_0,word_2_word_1_word_3,different,grapes,Italian_Speech,adult,katy,,,,,,,,,female
BhmYV,12,9,mal_plain,fem_sws,2,grapes,window,pizza,window,pizza,grapes,mal_plain_fem_sws,critical,2/13/2017,12:58,top_img,true,5053,1,2_1_1_0,word_2_word_1_word_3,different,window,Italian_Speech,adult,katy,,,,,,,,,female
BhmYV,12,9,mal_plain,fem_sws,3,grapes,window,pizza,window,pizza,grapes,mal_plain_fem_sws,critical,2/13/2017,12:58,top_img,false,3150,1,2_1_1_0,word_2_word_1_word_3,different,window,Italian_Speech,adult,katy,,,,,,,,,female
BhmYV,13,4,mal_plain,fem_sws,1,flower,coat,coat,strawberry,coat,flower,mal_plain_fem_sws,critical,2/13/2017,12:58,right,true,2975,1,1_2_2_1,word_2_word_1_word_3,near,flower,Italian_Speech,adult,katy,,,,,,,,,female
BhmYV,13,4,mal_plain,fem_sws,2,flower,coat,coat,strawberry,coat,flower,mal_plain_fem_sws,critical,2/13/2017,12:58,left,true,3509,1,1_2_2_1,word_2_word_1_word_3,near,coat,Italian_Speech,adult,katy,,,,,,,,,female
BhmYV,13,4,mal_plain,fem_sws,3,flower,coat,coat,strawberry,coat,flower,mal_plain_fem_sws,critical,2/13/2017,12:58,top_img,false,3549,1,1_2_2_1,word_2_word_1_word_3,near,strawberry,Italian_Speech,adult,katy,,,,,,,,,female
BhmYV,14,20,mal_plain,fem_sws,1,jumper,rabbit,apple,jumper,apple,rabbit,mal_plain_fem_sws,critical,2/13/2017,12:58,left,false,4914,1,2_1_2_0,word_1_word_3_word_2,different,apple,Italian_Speech,adult,katy,,,,,,,,,female
BhmYV,14,20,mal_plain,fem_sws,2,jumper,rabbit,apple,jumper,apple,rabbit,mal_plain_fem_sws,critical,2/13/2017,12:58,top_img,false,5106,1,2_1_2_0,word_1_word_3_word_2,different,jumper,Italian_Speech,adult,katy,,,,,,,,,female
BhmYV,14,20,mal_plain,fem_sws,3,jumper,rabbit,apple,jumper,apple,rabbit,mal_plain_fem_sws,critical,2/13/2017,12:58,right,false,4439,1,2_1_2_0,word_1_word_3_word_2,different,rabbit,Italian_Speech,adult,katy,,,,,,,,,female
BhmYV,15,17,mal_plain,fem_sws,1,hand,ambulance,ambulance,ambulance,hand,cake,mal_plain_fem_sws,critical,2/13/2017,12:58,left,true,3699,1,1_2_2_1,word_2_word_3_word_1,near,hand,Italian_Speech,adult,katy,,,,,,,,,female
BhmYV,15,17,mal_plain,fem_sws,2,hand,ambulance,ambulance,ambulance,hand,cake,mal_plain_fem_sws,critical,2/13/2017,12:58,top_img,true,2753,1,1_2_2_1,word_2_word_3_word_1,near,ambulance,Italian_Speech,adult,katy,,,,,,,,,female
BhmYV,15,17,mal_plain,fem_sws,3,hand,ambulance,ambulance,ambulance,hand,cake,mal_plain_fem_sws,critical,2/13/2017,12:58,right,false,3053,1,1_2_2_1,word_2_word_3_word_1,near,cake,Italian_Speech,adult,katy,,,,,,,,,female
BhmYV,16,23,mal_plain,fem_sws,1,teddy_bear,table,teddy_bear,bath,teddy_bear,table,mal_plain_fem_sws,critical,2/13/2017,12:58,right,false,3681,1,2_1_2_1,word_1_word_2_word_3,far,table,Italian_Speech,adult,katy,,,,,,,,,female
BhmYV,16,23,mal_plain,fem_sws,2,teddy_bear,table,teddy_bear,bath,teddy_bear,table,mal_plain_fem_sws,critical,2/13/2017,12:58,left,false,4477,1,2_1_2_1,word_1_word_2_word_3,far,teddy_bear,Italian_Speech,adult,katy,,,,,,,,,female
BhmYV,16,23,mal_plain,fem_sws,3,teddy_bear,table,teddy_bear,bath,teddy_bear,table,mal_plain_fem_sws,critical,2/13/2017,12:58,top_img,false,3105,1,2_1_2_1,word_1_word_2_word_3,far,bath,Italian_Speech,adult,katy,,,,,,,,,female
BhmYV,17,3,mal_plain,fem_sws,1,trousers,telephone,telephone,trousers,nose,telephone,mal_plain_fem_sws,critical,2/13/2017,12:58,top_img,true,5252,1,1_2_2_1,word_1_word_2_word_3,near,trousers,Italian_Speech,adult,katy,,,,,,,,,female
BhmYV,17,3,mal_plain,fem_sws,2,trousers,telephone,telephone,trousers,nose,telephone,mal_plain_fem_sws,critical,2/13/2017,12:58,right,true,3376,1,1_2_2_1,word_1_word_2_word_3,near,telephone,Italian_Speech,adult,katy,,,,,,,,,female
BhmYV,17,3,mal_plain,fem_sws,3,trousers,telephone,telephone,trousers,nose,telephone,mal_plain_fem_sws,critical,2/13/2017,12:58,right,true,5309,1,1_2_2_1,word_1_word_2_word_3,near,telephone,Italian_Speech,adult,katy,,,,,,,,,female
BhmYV,18,11,mal_plain,fem_sws,1,lorry,book,cow,cow,book,lorry,mal_plain_fem_sws,critical,2/13/2017,12:58,top_img,false,3429,1,2_1_1_0,word_3_word_1_word_2,different,cow,Italian_Speech,adult,katy,,,,,,,,,female
BhmYV,18,11,mal_plain,fem_sws,2,lorry,book,cow,cow,book,lorry,mal_plain_fem_sws,critical,2/13/2017,12:58,right,false,3431,1,2_1_1_0,word_3_word_1_word_2,different,lorry,Italian_Speech,adult,katy,,,,,,,,,female
BhmYV,18,11,mal_plain,fem_sws,3,lorry,book,cow,cow,book,lorry,mal_plain_fem_sws,critical,2/13/2017,12:58,left,false,2885,1,2_1_1_0,word_3_word_1_word_2,different,book,Italian_Speech,adult,katy,,,,,,,,,female
BhmYV,19,14,mal_plain,fem_sws,1,shoes,cheese,door,cheese,door,shoes,mal_plain_fem_sws,critical,2/13/2017,12:58,right,true,4926,1,2_1_1_0,word_1_word_3_word_2,different,shoes,Italian_Speech,adult,katy,,,,,,,,,female
BhmYV,19,14,mal_plain,fem_sws,2,shoes,cheese,door,cheese,door,shoes,mal_plain_fem_sws,critical,2/13/2017,12:58,top_img,true,3402,1,2_1_1_0,word_1_word_3_word_2,different,cheese,Italian_Speech,adult,katy,,,,,,,,,female
BhmYV,19,14,mal_plain,fem_sws,3,shoes,cheese,door,cheese,door,shoes,mal_plain_fem_sws,critical,2/13/2017,12:58,left,true,3319,1,2_1_1_0,word_1_word_3_word_2,different,door,Italian_Speech,adult,katy,,,,,,,,,female
BhmYV,20,19,mal_plain,fem_sws,1,santa,tree,building_blocks,building_blocks,tree,santa,mal_plain_fem_sws,critical,2/13/2017,12:58,right,true,3860,1,1_2_2_0,word_2_word_3_word_1,different,santa,Italian_Speech,adult,katy,,,,,,,,,female
BhmYV,20,19,mal_plain,fem_sws,2,santa,tree,building_blocks,building_blocks,tree,santa,mal_plain_fem_sws,critical,2/13/2017,12:58,left,true,4666,1,1_2_2_0,word_2_word_3_word_1,different,tree,Italian_Speech,adult,katy,,,,,,,,,female
BhmYV,20,19,mal_plain,fem_sws,3,santa,tree,building_blocks,building_blocks,tree,santa,mal_plain_fem_sws,critical,2/13/2017,12:58,top_img,true,2918,1,1_2_2_0,word_2_word_3_word_1,different,building_blocks,Italian_Speech,adult,katy,,,,,,,,,female
BhmYV,21,10,mal_plain,fem_sws,1,tshirt,hat,tshirt,hat,tshirt,pig,mal_plain_fem_sws,critical,2/13/2017,12:58,top_img,false,4742,2,2_1_2_1,word_3_word_2_word_1,far,hat,Italian_Speech,adult,katy,,,,,,,,,female
BhmYV,21,10,mal_plain,fem_sws,2,tshirt,hat,tshirt,hat,tshirt,pig,mal_plain_fem_sws,critical,2/13/2017,12:58,left,false,2693,1,2_1_2_1,word_3_word_2_word_1,far,tshirt,Italian_Speech,adult,katy,,,,,,,,,female
BhmYV,21,10,mal_plain,fem_sws,3,tshirt,hat,tshirt,hat,tshirt,pig,mal_plain_fem_sws,critical,2/13/2017,12:58,top_img,false,4008,1,2_1_2_1,word_3_word_2_word_1,far,hat,Italian_Speech,adult,katy,,,,,,,,,female
BhmYV,22,5,mal_plain,fem_sws,1,mouth,orange,orange,car,mouth,orange,mal_plain_fem_sws,critical,2/13/2017,12:58,left,true,3313,1,2_1_1_1,word_2_word_3_word_1,near,mouth,Italian_Speech,adult,katy,,,,,,,,,female
BhmYV,22,5,mal_plain,fem_sws,2,mouth,orange,orange,car,mouth,orange,mal_plain_fem_sws,critical,2/13/2017,12:58,right,true,3307,1,2_1_1_1,word_2_word_3_word_1,near,orange,Italian_Speech,adult,katy,,,,,,,,,female
BhmYV,22,5,mal_plain,fem_sws,3,mouth,orange,orange,car,mouth,orange,mal_plain_fem_sws,critical,2/13/2017,12:58,right,true,3575,1,2_1_1_1,word_2_word_3_word_1,near,orange,Italian_Speech,adult,katy,,,,,,,,,female
BhmYV,23,1,mal_plain,fem_sws,1,spoon,train,spoon,spoon,baby,train,mal_plain_fem_sws,critical,2/13/2017,12:58,top_img,true,3023,2,1_2_1_1,word_1_word_2_word_3,far,spoon,Italian_Speech,adult,katy,,,,,,,,,female
BhmYV,23,1,mal_plain,fem_sws,2,spoon,train,spoon,spoon,baby,train,mal_plain_fem_sws,critical,2/13/2017,12:58,right,true,2568,1,1_2_1_1,word_1_word_2_word_3,far,train,Italian_Speech,adult,katy,,,,,,,,,female
BhmYV,23,1,mal_plain,fem_sws,3,spoon,train,spoon,spoon,baby,train,mal_plain_fem_sws,critical,2/13/2017,12:58,top_img,true,4141,1,1_2_1_1,word_1_word_2_word_3,far,spoon,Italian_Speech,adult,katy,,,,,,,,,female
BhmYV,24,15,mal_plain,fem_sws,1,beans,slide,pencil,beans,pencil,slide,mal_plain_fem_sws,critical,2/13/2017,12:58,right,false,6715,1,2_1_2_0,word_3_word_2_word_1,different,slide,Italian_Speech,adult,katy,,,,,,,,,female
BhmYV,24,15,mal_plain,fem_sws,2,beans,slide,pencil,beans,pencil,slide,mal_plain_fem_sws,critical,2/13/2017,12:58,left,false,4036,1,2_1_2_0,word_3_word_2_word_1,different,pencil,Italian_Speech,adult,katy,,,,,,,,,female
BhmYV,24,15,mal_plain,fem_sws,3,beans,slide,pencil,beans,pencil,slide,mal_plain_fem_sws,critical,2/13/2017,12:58,top_img,false,2889,1,2_1_2_0,word_3_word_2_word_1,different,beans,Italian_Speech,adult,katy,,,,,,,,,female
BhmYV,25,13,mal_plain,fem_sws,1,airplane,bread,airplane,airplane,toothbrush,bread,mal_plain_fem_sws,critical,2/13/2017,12:58,top_img,true,2250,1,1_2_1_1,word_2_word_1_word_3,far,airplane,Italian_Speech,adult,katy,,,,,,,,,female
BhmYV,25,13,mal_plain,fem_sws,2,airplane,bread,airplane,airplane,toothbrush,bread,mal_plain_fem_sws,critical,2/13/2017,12:58,right,true,3621,1,1_2_1_1,word_2_word_1_word_3,far,bread,Italian_Speech,adult,katy,,,,,,,,,female
BhmYV,25,13,mal_plain,fem_sws,3,airplane,bread,airplane,airplane,toothbrush,bread,mal_plain_fem_sws,critical,2/13/2017,12:58,top_img,true,2539,1,1_2_1_1,word_2_word_1_word_3,far,airplane,Italian_Speech,adult,katy,,,,,,,,,female
