subject_id,trial_number,trial_id,plain,sws,instruction_number,sound1_item,sound2_item,sound3_item,top_image,left_image,right_image,sound_gender,trial_type,date_stamp,time_stamp,side_chosen,accuracy,rt,play_counter,order,pic_position,distance,chosen_pic,test_lang,testing_loc,tester,date_of_birth,ethnicity,native_lang,other_langs,parental_occ,dev_info,birth_order,num_siblings,gender
dbBjs,1,0,mal_plain,fem_sws,1,fireman,tractor,glasses,fireman,tractor,glasses,mal_plain_fem_sws,training,2/7/2017,13:22,right,false,3211,4,2_1_2_0,word_1_word_3_word_2,different,glasses,Italian_Speech,adult,megan,,,,,,,,,male
dbBjs,1,0,mal_plain,fem_sws,2,fireman,tractor,glasses,fireman,tractor,glasses,mal_plain_fem_sws,training,2/7/2017,13:22,top_img,false,11393,2,2_1_2_0,word_1_word_3_word_2,different,fireman,Italian_Speech,adult,megan,,,,,,,,,male
dbBjs,1,0,mal_plain,fem_sws,3,fireman,tractor,glasses,fireman,tractor,glasses,mal_plain_fem_sws,training,2/7/2017,13:22,left,false,3758,3,2_1_2_0,word_1_word_3_word_2,different,tractor,Italian_Speech,adult,megan,,,,,,,,,male
dbBjs,2,3,mal_plain,fem_sws,1,telephone,nose,trousers,telephone,nose,trousers,mal_plain_fem_sws,critical,2/7/2017,13:22,top_img,true,2782,2,2_1_1_0,word_3_word_2_word_1,different,telephone,Italian_Speech,adult,megan,,,,,,,,,male
dbBjs,2,3,mal_plain,fem_sws,2,telephone,nose,trousers,telephone,nose,trousers,mal_plain_fem_sws,critical,2/7/2017,13:22,left,true,5087,1,2_1_1_0,word_3_word_2_word_1,different,nose,Italian_Speech,adult,megan,,,,,,,,,male
dbBjs,2,3,mal_plain,fem_sws,3,telephone,nose,trousers,telephone,nose,trousers,mal_plain_fem_sws,critical,2/7/2017,13:22,right,true,3784,3,2_1_1_0,word_3_word_2_word_1,different,trousers,Italian_Speech,adult,megan,,,,,,,,,male
dbBjs,3,24,mal_plain,fem_sws,1,sink,fish,fish,fish,sink,socks,mal_plain_fem_sws,critical,2/7/2017,13:22,left,true,3083,1,2_1_1_1,word_2_word_1_word_3,near,sink,Italian_Speech,adult,megan,,,,,,,,,male
dbBjs,3,24,mal_plain,fem_sws,2,sink,fish,fish,fish,sink,socks,mal_plain_fem_sws,critical,2/7/2017,13:22,top_img,true,2927,4,2_1_1_1,word_2_word_1_word_3,near,fish,Italian_Speech,adult,megan,,,,,,,,,male
dbBjs,3,24,mal_plain,fem_sws,3,sink,fish,fish,fish,sink,socks,mal_plain_fem_sws,critical,2/7/2017,13:22,right,false,2739,4,2_1_1_1,word_2_word_1_word_3,near,socks,Italian_Speech,adult,megan,,,,,,,,,male
dbBjs,4,9,mal_plain,fem_sws,1,pizza,window,window,grapes,window,pizza,mal_plain_fem_sws,critical,2/7/2017,13:22,right,true,2624,2,2_1_1_1,word_3_word_2_word_1,near,pizza,Italian_Speech,adult,megan,,,,,,,,,male
dbBjs,4,9,mal_plain,fem_sws,2,pizza,window,window,grapes,window,pizza,mal_plain_fem_sws,critical,2/7/2017,13:22,top_img,false,7710,2,2_1_1_1,word_3_word_2_word_1,near,grapes,Italian_Speech,adult,megan,,,,,,,,,male
dbBjs,4,9,mal_plain,fem_sws,3,pizza,window,window,grapes,window,pizza,mal_plain_fem_sws,critical,2/7/2017,13:22,left,true,2939,2,2_1_1_1,word_3_word_2_word_1,near,window,Italian_Speech,adult,megan,,,,,,,,,male
dbBjs,5,2,mal_plain,fem_sws,1,fork,chicken,fork,fork,chicken,bed,mal_plain_fem_sws,critical,2/7/2017,13:22,top_img,true,2084,2,2_1_2_1,word_3_word_2_word_1,far,fork,Italian_Speech,adult,megan,,,,,,,,,male
dbBjs,5,2,mal_plain,fem_sws,2,fork,chicken,fork,fork,chicken,bed,mal_plain_fem_sws,critical,2/7/2017,13:22,left,true,6723,2,2_1_2_1,word_3_word_2_word_1,far,chicken,Italian_Speech,adult,megan,,,,,,,,,male
dbBjs,5,2,mal_plain,fem_sws,3,fork,chicken,fork,fork,chicken,bed,mal_plain_fem_sws,critical,2/7/2017,13:22,right,false,2888,1,2_1_2_1,word_3_word_2_word_1,far,bed,Italian_Speech,adult,megan,,,,,,,,,male
dbBjs,6,15,mal_plain,fem_sws,1,pencil,beans,pencil,pencil,slide,beans,mal_plain_fem_sws,critical,2/7/2017,13:22,top_img,true,8221,2,1_2_1_1,word_2_word_1_word_3,far,pencil,Italian_Speech,adult,megan,,,,,,,,,male
dbBjs,6,15,mal_plain,fem_sws,2,pencil,beans,pencil,pencil,slide,beans,mal_plain_fem_sws,critical,2/7/2017,13:22,left,false,4764,2,1_2_1_1,word_2_word_1_word_3,far,slide,Italian_Speech,adult,megan,,,,,,,,,male
dbBjs,6,15,mal_plain,fem_sws,3,pencil,beans,pencil,pencil,slide,beans,mal_plain_fem_sws,critical,2/7/2017,13:22,right,false,2937,1,1_2_1_1,word_2_word_1_word_3,far,beans,Italian_Speech,adult,megan,,,,,,,,,male
dbBjs,7,14,mal_plain,fem_sws,1,shoes,cheese,cheese,shoes,cheese,door,mal_plain_fem_sws,critical,2/7/2017,13:22,right,false,6417,2,1_2_2_1,word_2_word_1_word_3,near,door,Italian_Speech,adult,megan,,,,,,,,,male
dbBjs,7,14,mal_plain,fem_sws,2,shoes,cheese,cheese,shoes,cheese,door,mal_plain_fem_sws,critical,2/7/2017,13:22,left,true,2245,2,1_2_2_1,word_2_word_1_word_3,near,cheese,Italian_Speech,adult,megan,,,,,,,,,male
dbBjs,7,14,mal_plain,fem_sws,3,shoes,cheese,cheese,shoes,cheese,door,mal_plain_fem_sws,critical,2/7/2017,13:22,top_img,false,2489,2,1_2_2_1,word_2_word_1_word_3,near,shoes,Italian_Speech,adult,megan,,,,,,,,,male
dbBjs,8,10,mal_plain,fem_sws,1,hat,tshirt,tshirt,pig,hat,tshirt,mal_plain_fem_sws,critical,2/7/2017,13:22,left,true,2453,1,1_2_2_1,word_1_word_3_word_2,near,hat,Italian_Speech,adult,megan,,,,,,,,,male
dbBjs,8,10,mal_plain,fem_sws,2,hat,tshirt,tshirt,pig,hat,tshirt,mal_plain_fem_sws,critical,2/7/2017,13:22,top_img,false,3677,4,1_2_2_1,word_1_word_3_word_2,near,pig,Italian_Speech,adult,megan,,,,,,,,,male
dbBjs,8,10,mal_plain,fem_sws,3,hat,tshirt,tshirt,pig,hat,tshirt,mal_plain_fem_sws,critical,2/7/2017,13:22,right,true,2914,2,1_2_2_1,word_1_word_3_word_2,near,tshirt,Italian_Speech,adult,megan,,,,,,,,,male
dbBjs,9,19,mal_plain,fem_sws,1,santa,building_blocks,tree,tree,santa,building_blocks,mal_plain_fem_sws,critical,2/7/2017,13:22,left,true,7787,2,1_2_2_0,word_3_word_1_word_2,different,santa,Italian_Speech,adult,megan,,,,,,,,,male
dbBjs,9,19,mal_plain,fem_sws,2,santa,building_blocks,tree,tree,santa,building_blocks,mal_plain_fem_sws,critical,2/7/2017,13:22,top_img,false,3295,2,1_2_2_0,word_3_word_1_word_2,different,tree,Italian_Speech,adult,megan,,,,,,,,,male
dbBjs,9,19,mal_plain,fem_sws,3,santa,building_blocks,tree,tree,santa,building_blocks,mal_plain_fem_sws,critical,2/7/2017,13:22,right,false,2561,4,1_2_2_0,word_3_word_1_word_2,different,building_blocks,Italian_Speech,adult,megan,,,,,,,,,male
dbBjs,10,6,mal_plain,fem_sws,1,bird,carrot,bird,bird,peas,carrot,mal_plain_fem_sws,critical,2/7/2017,13:22,top_img,true,4210,2,1_2_1_1,word_1_word_2_word_3,far,bird,Italian_Speech,adult,megan,,,,,,,,,male
dbBjs,10,6,mal_plain,fem_sws,2,bird,carrot,bird,bird,peas,carrot,mal_plain_fem_sws,critical,2/7/2017,13:22,right,true,2809,2,1_2_1_1,word_1_word_2_word_3,far,carrot,Italian_Speech,adult,megan,,,,,,,,,male
dbBjs,10,6,mal_plain,fem_sws,3,bird,carrot,bird,bird,peas,carrot,mal_plain_fem_sws,critical,2/7/2017,13:22,left,false,3524,2,1_2_1_1,word_1_word_2_word_3,far,peas,Italian_Speech,adult,megan,,,,,,,,,male
dbBjs,11,7,mal_plain,fem_sws,1,lolly,horse,lolly,lolly,cat,horse,mal_plain_fem_sws,critical,2/7/2017,13:22,left,false,8472,2,2_1_2_1,word_1_word_3_word_2,far,cat,Italian_Speech,adult,megan,,,,,,,,,male
dbBjs,11,7,mal_plain,fem_sws,2,lolly,horse,lolly,lolly,cat,horse,mal_plain_fem_sws,critical,2/7/2017,13:22,right,true,3553,4,2_1_2_1,word_1_word_3_word_2,far,horse,Italian_Speech,adult,megan,,,,,,,,,male
dbBjs,11,7,mal_plain,fem_sws,3,lolly,horse,lolly,lolly,cat,horse,mal_plain_fem_sws,critical,2/7/2017,13:22,top_img,true,2783,2,2_1_2_1,word_1_word_3_word_2,far,lolly,Italian_Speech,adult,megan,,,,,,,,,male
dbBjs,12,20,mal_plain,fem_sws,1,jumper,apple,rabbit,rabbit,jumper,apple,mal_plain_fem_sws,critical,2/7/2017,13:22,left,true,8011,2,1_2_2_0,word_2_word_1_word_3,different,jumper,Italian_Speech,adult,megan,,,,,,,,,male
dbBjs,12,20,mal_plain,fem_sws,2,jumper,apple,rabbit,rabbit,jumper,apple,mal_plain_fem_sws,critical,2/7/2017,13:22,right,true,3541,2,1_2_2_0,word_2_word_1_word_3,different,apple,Italian_Speech,adult,megan,,,,,,,,,male
dbBjs,12,20,mal_plain,fem_sws,3,jumper,apple,rabbit,rabbit,jumper,apple,mal_plain_fem_sws,critical,2/7/2017,13:22,top_img,true,2798,2,1_2_2_0,word_2_word_1_word_3,different,rabbit,Italian_Speech,adult,megan,,,,,,,,,male
dbBjs,13,16,mal_plain,fem_sws,1,chair,paintbrush,paintbrush,banana,paintbrush,chair,mal_plain_fem_sws,critical,2/7/2017,13:22,left,false,6165,6,2_1_1_1,word_2_word_1_word_3,near,paintbrush,Italian_Speech,adult,megan,,,,,,,,,male
dbBjs,13,16,mal_plain,fem_sws,2,chair,paintbrush,paintbrush,banana,paintbrush,chair,mal_plain_fem_sws,critical,2/7/2017,13:22,right,false,2858,2,2_1_1_1,word_2_word_1_word_3,near,chair,Italian_Speech,adult,megan,,,,,,,,,male
dbBjs,13,16,mal_plain,fem_sws,3,chair,paintbrush,paintbrush,banana,paintbrush,chair,mal_plain_fem_sws,critical,2/7/2017,13:22,top_img,false,3518,2,2_1_1_1,word_2_word_1_word_3,near,banana,Italian_Speech,adult,megan,,,,,,,,,male
dbBjs,14,23,mal_plain,fem_sws,1,bath,teddy_bear,table,table,teddy_bear,bath,mal_plain_fem_sws,critical,2/7/2017,13:22,top_img,false,9094,2,2_1_1_0,word_3_word_2_word_1,different,table,Italian_Speech,adult,megan,,,,,,,,,male
dbBjs,14,23,mal_plain,fem_sws,2,bath,teddy_bear,table,table,teddy_bear,bath,mal_plain_fem_sws,critical,2/7/2017,13:22,left,true,4807,2,2_1_1_0,word_3_word_2_word_1,different,teddy_bear,Italian_Speech,adult,megan,,,,,,,,,male
dbBjs,14,23,mal_plain,fem_sws,3,bath,teddy_bear,table,table,teddy_bear,bath,mal_plain_fem_sws,critical,2/7/2017,13:22,right,false,4596,4,2_1_1_0,word_3_word_2_word_1,different,bath,Italian_Speech,adult,megan,,,,,,,,,male
dbBjs,15,4,mal_plain,fem_sws,1,flower,strawberry,coat,strawberry,coat,flower,mal_plain_fem_sws,critical,2/7/2017,13:22,left,false,4079,2,2_1_1_0,word_2_word_1_word_3,different,coat,Italian_Speech,adult,megan,,,,,,,,,male
dbBjs,15,4,mal_plain,fem_sws,2,flower,strawberry,coat,strawberry,coat,flower,mal_plain_fem_sws,critical,2/7/2017,13:22,top_img,true,2864,2,2_1_1_0,word_2_word_1_word_3,different,strawberry,Italian_Speech,adult,megan,,,,,,,,,male
dbBjs,15,4,mal_plain,fem_sws,3,flower,strawberry,coat,strawberry,coat,flower,mal_plain_fem_sws,critical,2/7/2017,13:22,right,false,2537,2,2_1_1_0,word_2_word_1_word_3,different,flower,Italian_Speech,adult,megan,,,,,,,,,male
dbBjs,16,11,mal_plain,fem_sws,1,book,cow,lorry,cow,book,lorry,mal_plain_fem_sws,critical,2/7/2017,13:22,left,true,2046,2,2_1_1_0,word_3_word_1_word_2,different,book,Italian_Speech,adult,megan,,,,,,,,,male
dbBjs,16,11,mal_plain,fem_sws,2,book,cow,lorry,cow,book,lorry,mal_plain_fem_sws,critical,2/7/2017,13:22,top_img,true,4665,2,2_1_1_0,word_3_word_1_word_2,different,cow,Italian_Speech,adult,megan,,,,,,,,,male
dbBjs,16,11,mal_plain,fem_sws,3,book,cow,lorry,cow,book,lorry,mal_plain_fem_sws,critical,2/7/2017,13:22,right,true,2795,4,2_1_1_0,word_3_word_1_word_2,different,lorry,Italian_Speech,adult,megan,,,,,,,,,male
dbBjs,17,1,mal_plain,fem_sws,1,spoon,baby,spoon,spoon,train,baby,mal_plain_fem_sws,critical,2/7/2017,13:22,top_img,true,4010,4,1_2_1_1,word_1_word_3_word_2,far,spoon,Italian_Speech,adult,megan,,,,,,,,,male
dbBjs,17,1,mal_plain,fem_sws,2,spoon,baby,spoon,spoon,train,baby,mal_plain_fem_sws,critical,2/7/2017,13:22,right,true,2381,2,1_2_1_1,word_1_word_3_word_2,far,baby,Italian_Speech,adult,megan,,,,,,,,,male
dbBjs,17,1,mal_plain,fem_sws,3,spoon,baby,spoon,spoon,train,baby,mal_plain_fem_sws,critical,2/7/2017,13:22,left,false,3885,2,1_2_1_1,word_1_word_3_word_2,far,train,Italian_Speech,adult,megan,,,,,,,,,male
dbBjs,18,22,mal_plain,fem_sws,1,bike,dog,doctor,doctor,dog,bike,mal_plain_fem_sws,critical,2/7/2017,13:22,right,true,3478,2,2_1_1_0,word_3_word_2_word_1,different,bike,Italian_Speech,adult,megan,,,,,,,,,male
dbBjs,18,22,mal_plain,fem_sws,2,bike,dog,doctor,doctor,dog,bike,mal_plain_fem_sws,critical,2/7/2017,13:22,left,true,2827,2,2_1_1_0,word_3_word_2_word_1,different,dog,Italian_Speech,adult,megan,,,,,,,,,male
dbBjs,18,22,mal_plain,fem_sws,3,bike,dog,doctor,doctor,dog,bike,mal_plain_fem_sws,critical,2/7/2017,13:22,top_img,true,2957,2,2_1_1_0,word_3_word_2_word_1,different,doctor,Italian_Speech,adult,megan,,,,,,,,,male
dbBjs,19,12,mal_plain,fem_sws,1,gloves,foot,foot,foot,gloves,yoghurt,mal_plain_fem_sws,critical,2/7/2017,13:22,left,true,2473,4,1_2_2_1,word_1_word_3_word_2,near,gloves,Italian_Speech,adult,megan,,,,,,,,,male
dbBjs,19,12,mal_plain,fem_sws,2,gloves,foot,foot,foot,gloves,yoghurt,mal_plain_fem_sws,critical,2/7/2017,13:22,top_img,true,2348,2,1_2_2_1,word_1_word_3_word_2,near,foot,Italian_Speech,adult,megan,,,,,,,,,male
dbBjs,19,12,mal_plain,fem_sws,3,gloves,foot,foot,foot,gloves,yoghurt,mal_plain_fem_sws,critical,2/7/2017,13:22,right,false,2152,2,1_2_2_1,word_1_word_3_word_2,near,yoghurt,Italian_Speech,adult,megan,,,,,,,,,male
dbBjs,20,18,mal_plain,fem_sws,1,raspberry,ball,raspberry,raspberry,camera,ball,mal_plain_fem_sws,critical,2/7/2017,13:22,left,false,9503,2,2_1_2_1,word_2_word_3_word_1,far,camera,Italian_Speech,adult,megan,,,,,,,,,male
dbBjs,20,18,mal_plain,fem_sws,2,raspberry,ball,raspberry,raspberry,camera,ball,mal_plain_fem_sws,critical,2/7/2017,13:22,right,true,3123,3,2_1_2_1,word_2_word_3_word_1,far,ball,Italian_Speech,adult,megan,,,,,,,,,male
dbBjs,20,18,mal_plain,fem_sws,3,raspberry,ball,raspberry,raspberry,camera,ball,mal_plain_fem_sws,critical,2/7/2017,13:22,top_img,true,2971,2,2_1_2_1,word_2_word_3_word_1,far,raspberry,Italian_Speech,adult,megan,,,,,,,,,male
dbBjs,21,21,mal_plain,fem_sws,1,eye,frog,sheep,eye,frog,sheep,mal_plain_fem_sws,critical,2/7/2017,13:22,top_img,true,2276,2,1_2_2_0,word_3_word_1_word_2,different,eye,Italian_Speech,adult,megan,,,,,,,,,male
dbBjs,21,21,mal_plain,fem_sws,2,eye,frog,sheep,eye,frog,sheep,mal_plain_fem_sws,critical,2/7/2017,13:22,right,false,3434,2,1_2_2_0,word_3_word_1_word_2,different,sheep,Italian_Speech,adult,megan,,,,,,,,,male
dbBjs,21,21,mal_plain,fem_sws,3,eye,frog,sheep,eye,frog,sheep,mal_plain_fem_sws,critical,2/7/2017,13:22,left,false,2340,2,1_2_2_0,word_3_word_1_word_2,different,frog,Italian_Speech,adult,megan,,,,,,,,,male
dbBjs,22,17,mal_plain,fem_sws,1,hand,cake,ambulance,cake,hand,ambulance,mal_plain_fem_sws,critical,2/7/2017,13:22,left,true,2955,2,2_1_1_0,word_1_word_3_word_2,different,hand,Italian_Speech,adult,megan,,,,,,,,,male
dbBjs,22,17,mal_plain,fem_sws,2,hand,cake,ambulance,cake,hand,ambulance,mal_plain_fem_sws,critical,2/7/2017,13:22,top_img,true,2419,4,2_1_1_0,word_1_word_3_word_2,different,cake,Italian_Speech,adult,megan,,,,,,,,,male
dbBjs,22,17,mal_plain,fem_sws,3,hand,cake,ambulance,cake,hand,ambulance,mal_plain_fem_sws,critical,2/7/2017,13:22,right,true,3193,2,2_1_1_0,word_1_word_3_word_2,different,ambulance,Italian_Speech,adult,megan,,,,,,,,,male
dbBjs,23,8,mal_plain,fem_sws,1,wellboots,ear,fire_engine,fire_engine,wellboots,ear,mal_plain_fem_sws,critical,2/7/2017,13:22,top_img,false,3085,4,2_1_2_0,word_2_word_1_word_3,different,fire_engine,Italian_Speech,adult,megan,,,,,,,,,male
dbBjs,23,8,mal_plain,fem_sws,2,wellboots,ear,fire_engine,fire_engine,wellboots,ear,mal_plain_fem_sws,critical,2/7/2017,13:22,right,true,1853,2,2_1_2_0,word_2_word_1_word_3,different,ear,Italian_Speech,adult,megan,,,,,,,,,male
dbBjs,23,8,mal_plain,fem_sws,3,wellboots,ear,fire_engine,fire_engine,wellboots,ear,mal_plain_fem_sws,critical,2/7/2017,13:22,left,false,3315,2,2_1_2_0,word_2_word_1_word_3,different,wellboots,Italian_Speech,adult,megan,,,,,,,,,male
dbBjs,24,5,mal_plain,fem_sws,1,car,mouth,orange,mouth,orange,car,mal_plain_fem_sws,critical,2/7/2017,13:22,right,true,2005,2,2_1_2_0,word_3_word_1_word_2,different,car,Italian_Speech,adult,megan,,,,,,,,,male
dbBjs,24,5,mal_plain,fem_sws,2,car,mouth,orange,mouth,orange,car,mal_plain_fem_sws,critical,2/7/2017,13:22,top_img,true,4047,2,2_1_2_0,word_3_word_1_word_2,different,mouth,Italian_Speech,adult,megan,,,,,,,,,male
dbBjs,24,5,mal_plain,fem_sws,3,car,mouth,orange,mouth,orange,car,mal_plain_fem_sws,critical,2/7/2017,13:22,left,true,2791,2,2_1_2_0,word_3_word_1_word_2,different,orange,Italian_Speech,adult,megan,,,,,,,,,male
dbBjs,25,13,mal_plain,fem_sws,1,toothbrush,airplane,toothbrush,bread,airplane,toothbrush,mal_plain_fem_sws,critical,2/7/2017,13:22,right,true,3694,6,1_2_1_1,word_3_word_2_word_1,far,toothbrush,Italian_Speech,adult,megan,,,,,,,,,male
dbBjs,25,13,mal_plain,fem_sws,2,toothbrush,airplane,toothbrush,bread,airplane,toothbrush,mal_plain_fem_sws,critical,2/7/2017,13:22,left,true,2275,2,1_2_1_1,word_3_word_2_word_1,far,airplane,Italian_Speech,adult,megan,,,,,,,,,male
dbBjs,25,13,mal_plain,fem_sws,3,toothbrush,airplane,toothbrush,bread,airplane,toothbrush,mal_plain_fem_sws,critical,2/7/2017,13:22,top_img,false,3087,1,1_2_1_1,word_3_word_2_word_1,far,bread,Italian_Speech,adult,megan,,,,,,,,,male
