subject_id,trial_number,trial_id,plain,sws,instruction_number,sound1_item,sound2_item,sound3_item,top_image,left_image,right_image,sound_gender,trial_type,date_stamp,time_stamp,side_chosen,accuracy,rt,play_counter,order,pic_position,distance,chosen_pic,test_lang,testing_loc,tester,date_of_birth,ethnicity,native_lang,other_langs,parental_occ,dev_info,birth_order,num_siblings,gender
Jmc8P,1,0,fem_plain,fem_sws,1,fireman,tractor,tractor,glasses,fireman,tractor,fem_plain_fem_sws,training,2/24/2017,22:37,right,false,4636,3,1_2_2_1,word_2_word_1_word_3,near,tractor,Italian_Speech,adult,megan,,,,,,,,,female
Jmc8P,1,0,fem_plain,fem_sws,2,fireman,tractor,tractor,glasses,fireman,tractor,fem_plain_fem_sws,training,2/24/2017,22:37,left,false,6038,1,1_2_2_1,word_2_word_1_word_3,near,fireman,Italian_Speech,adult,megan,,,,,,,,,female
Jmc8P,1,0,fem_plain,fem_sws,3,fireman,tractor,tractor,glasses,fireman,tractor,fem_plain_fem_sws,training,2/24/2017,22:37,top_img,false,2419,2,1_2_2_1,word_2_word_1_word_3,near,glasses,Italian_Speech,adult,megan,,,,,,,,,female
Jmc8P,2,5,fem_plain,fem_sws,1,orange,mouth,car,car,mouth,orange,fem_plain_fem_sws,critical,2/24/2017,22:37,right,true,3258,1,2_1_1_0,word_2_word_3_word_1,different,orange,Italian_Speech,adult,megan,,,,,,,,,female
Jmc8P,2,5,fem_plain,fem_sws,2,orange,mouth,car,car,mouth,orange,fem_plain_fem_sws,critical,2/24/2017,22:37,top_img,false,5211,1,2_1_1_0,word_2_word_3_word_1,different,car,Italian_Speech,adult,megan,,,,,,,,,female
Jmc8P,2,5,fem_plain,fem_sws,3,orange,mouth,car,car,mouth,orange,fem_plain_fem_sws,critical,2/24/2017,22:37,left,false,1814,2,2_1_1_0,word_2_word_3_word_1,different,mouth,Italian_Speech,adult,megan,,,,,,,,,female
Jmc8P,3,24,fem_plain,fem_sws,1,socks,sink,sink,fish,sink,socks,fem_plain_fem_sws,critical,2/24/2017,22:37,left,false,6051,1,2_1_1_1,word_2_word_1_word_3,near,sink,Italian_Speech,adult,megan,,,,,,,,,female
Jmc8P,3,24,fem_plain,fem_sws,2,socks,sink,sink,fish,sink,socks,fem_plain_fem_sws,critical,2/24/2017,22:37,top_img,false,5307,2,2_1_1_1,word_2_word_1_word_3,near,fish,Italian_Speech,adult,megan,,,,,,,,,female
Jmc8P,3,24,fem_plain,fem_sws,3,socks,sink,sink,fish,sink,socks,fem_plain_fem_sws,critical,2/24/2017,22:37,right,false,2254,3,2_1_1_1,word_2_word_1_word_3,near,socks,Italian_Speech,adult,megan,,,,,,,,,female
Jmc8P,4,1,fem_plain,fem_sws,1,spoon,baby,spoon,train,spoon,baby,fem_plain_fem_sws,critical,2/24/2017,22:37,left,true,7149,2,1_2_1_1,word_3_word_1_word_2,far,spoon,Italian_Speech,adult,megan,,,,,,,,,female
Jmc8P,4,1,fem_plain,fem_sws,2,spoon,baby,spoon,train,spoon,baby,fem_plain_fem_sws,critical,2/24/2017,22:37,right,true,3689,1,1_2_1_1,word_3_word_1_word_2,far,baby,Italian_Speech,adult,megan,,,,,,,,,female
Jmc8P,4,1,fem_plain,fem_sws,3,spoon,baby,spoon,train,spoon,baby,fem_plain_fem_sws,critical,2/24/2017,22:37,top_img,false,1682,1,1_2_1_1,word_3_word_1_word_2,far,train,Italian_Speech,adult,megan,,,,,,,,,female
Jmc8P,5,8,fem_plain,fem_sws,1,wellboots,ear,wellboots,fire_engine,wellboots,ear,fem_plain_fem_sws,critical,2/24/2017,22:37,left,true,5089,1,2_1_2_1,word_2_word_1_word_3,far,wellboots,Italian_Speech,adult,megan,,,,,,,,,female
Jmc8P,5,8,fem_plain,fem_sws,2,wellboots,ear,wellboots,fire_engine,wellboots,ear,fem_plain_fem_sws,critical,2/24/2017,22:37,right,true,5062,1,2_1_2_1,word_2_word_1_word_3,far,ear,Italian_Speech,adult,megan,,,,,,,,,female
Jmc8P,5,8,fem_plain,fem_sws,3,wellboots,ear,wellboots,fire_engine,wellboots,ear,fem_plain_fem_sws,critical,2/24/2017,22:37,top_img,false,3356,2,2_1_2_1,word_2_word_1_word_3,far,fire_engine,Italian_Speech,adult,megan,,,,,,,,,female
Jmc8P,6,22,fem_plain,fem_sws,1,bike,dog,doctor,doctor,dog,bike,fem_plain_fem_sws,critical,2/24/2017,22:37,right,true,4468,1,1_2_2_0,word_3_word_2_word_1,different,bike,Italian_Speech,adult,megan,,,,,,,,,female
Jmc8P,6,22,fem_plain,fem_sws,2,bike,dog,doctor,doctor,dog,bike,fem_plain_fem_sws,critical,2/24/2017,22:37,left,true,2204,1,1_2_2_0,word_3_word_2_word_1,different,dog,Italian_Speech,adult,megan,,,,,,,,,female
Jmc8P,6,22,fem_plain,fem_sws,3,bike,dog,doctor,doctor,dog,bike,fem_plain_fem_sws,critical,2/24/2017,22:37,top_img,true,1367,1,1_2_2_0,word_3_word_2_word_1,different,doctor,Italian_Speech,adult,megan,,,,,,,,,female
Jmc8P,7,16,fem_plain,fem_sws,1,paintbrush,banana,paintbrush,paintbrush,banana,chair,fem_plain_fem_sws,critical,2/24/2017,22:37,top_img,true,3274,1,2_1_2_1,word_1_word_2_word_3,far,paintbrush,Italian_Speech,adult,megan,,,,,,,,,female
Jmc8P,7,16,fem_plain,fem_sws,2,paintbrush,banana,paintbrush,paintbrush,banana,chair,fem_plain_fem_sws,critical,2/24/2017,22:37,left,true,2734,1,2_1_2_1,word_1_word_2_word_3,far,banana,Italian_Speech,adult,megan,,,,,,,,,female
Jmc8P,7,16,fem_plain,fem_sws,3,paintbrush,banana,paintbrush,paintbrush,banana,chair,fem_plain_fem_sws,critical,2/24/2017,22:37,right,false,985,1,2_1_2_1,word_1_word_2_word_3,far,chair,Italian_Speech,adult,megan,,,,,,,,,female
Jmc8P,8,2,fem_plain,fem_sws,1,fork,bed,chicken,fork,chicken,bed,fem_plain_fem_sws,critical,2/24/2017,22:37,top_img,true,2220,1,2_1_1_0,word_3_word_2_word_1,different,fork,Italian_Speech,adult,megan,,,,,,,,,female
Jmc8P,8,2,fem_plain,fem_sws,2,fork,bed,chicken,fork,chicken,bed,fem_plain_fem_sws,critical,2/24/2017,22:37,left,false,6578,2,2_1_1_0,word_3_word_2_word_1,different,chicken,Italian_Speech,adult,megan,,,,,,,,,female
Jmc8P,8,2,fem_plain,fem_sws,3,fork,bed,chicken,fork,chicken,bed,fem_plain_fem_sws,critical,2/24/2017,22:37,right,false,845,1,2_1_1_0,word_3_word_2_word_1,different,bed,Italian_Speech,adult,megan,,,,,,,,,female
Jmc8P,9,4,fem_plain,fem_sws,1,flower,strawberry,coat,flower,coat,strawberry,fem_plain_fem_sws,critical,2/24/2017,22:37,left,false,2687,2,1_2_2_0,word_3_word_1_word_2,different,coat,Italian_Speech,adult,megan,,,,,,,,,female
Jmc8P,9,4,fem_plain,fem_sws,2,flower,strawberry,coat,flower,coat,strawberry,fem_plain_fem_sws,critical,2/24/2017,22:37,top_img,false,4490,1,1_2_2_0,word_3_word_1_word_2,different,flower,Italian_Speech,adult,megan,,,,,,,,,female
Jmc8P,9,4,fem_plain,fem_sws,3,flower,strawberry,coat,flower,coat,strawberry,fem_plain_fem_sws,critical,2/24/2017,22:37,right,false,1007,1,1_2_2_0,word_3_word_1_word_2,different,strawberry,Italian_Speech,adult,megan,,,,,,,,,female
Jmc8P,10,12,fem_plain,fem_sws,1,yoghurt,gloves,foot,gloves,yoghurt,foot,fem_plain_fem_sws,critical,2/24/2017,22:37,left,true,2894,1,2_1_2_0,word_3_word_2_word_1,different,yoghurt,Italian_Speech,adult,megan,,,,,,,,,female
Jmc8P,10,12,fem_plain,fem_sws,2,yoghurt,gloves,foot,gloves,yoghurt,foot,fem_plain_fem_sws,critical,2/24/2017,22:37,top_img,true,3111,1,2_1_2_0,word_3_word_2_word_1,different,gloves,Italian_Speech,adult,megan,,,,,,,,,female
Jmc8P,10,12,fem_plain,fem_sws,3,yoghurt,gloves,foot,gloves,yoghurt,foot,fem_plain_fem_sws,critical,2/24/2017,22:37,right,true,1063,1,2_1_2_0,word_3_word_2_word_1,different,foot,Italian_Speech,adult,megan,,,,,,,,,female
Jmc8P,11,17,fem_plain,fem_sws,1,ambulance,cake,ambulance,hand,cake,ambulance,fem_plain_fem_sws,critical,2/24/2017,22:37,right,true,2550,1,1_2_1_1,word_3_word_1_word_2,far,ambulance,Italian_Speech,adult,megan,,,,,,,,,female
Jmc8P,11,17,fem_plain,fem_sws,2,ambulance,cake,ambulance,hand,cake,ambulance,fem_plain_fem_sws,critical,2/24/2017,22:37,left,true,2399,1,1_2_1_1,word_3_word_1_word_2,far,cake,Italian_Speech,adult,megan,,,,,,,,,female
Jmc8P,11,17,fem_plain,fem_sws,3,ambulance,cake,ambulance,hand,cake,ambulance,fem_plain_fem_sws,critical,2/24/2017,22:37,top_img,false,958,2,1_2_1_1,word_3_word_1_word_2,far,hand,Italian_Speech,adult,megan,,,,,,,,,female
Jmc8P,12,23,fem_plain,fem_sws,1,table,bath,teddy_bear,bath,table,teddy_bear,fem_plain_fem_sws,critical,2/24/2017,22:37,left,true,3135,2,2_1_1_0,word_1_word_3_word_2,different,table,Italian_Speech,adult,megan,,,,,,,,,female
Jmc8P,12,23,fem_plain,fem_sws,2,table,bath,teddy_bear,bath,table,teddy_bear,fem_plain_fem_sws,critical,2/24/2017,22:37,top_img,true,3292,1,2_1_1_0,word_1_word_3_word_2,different,bath,Italian_Speech,adult,megan,,,,,,,,,female
Jmc8P,12,23,fem_plain,fem_sws,3,table,bath,teddy_bear,bath,table,teddy_bear,fem_plain_fem_sws,critical,2/24/2017,22:37,right,true,1330,1,2_1_1_0,word_1_word_3_word_2,different,teddy_bear,Italian_Speech,adult,megan,,,,,,,,,female
Jmc8P,13,21,fem_plain,fem_sws,1,eye,sheep,sheep,frog,sheep,eye,fem_plain_fem_sws,critical,2/24/2017,22:37,right,true,1544,2,2_1_1_1,word_1_word_2_word_3,near,eye,Italian_Speech,adult,megan,,,,,,,,,female
Jmc8P,13,21,fem_plain,fem_sws,2,eye,sheep,sheep,frog,sheep,eye,fem_plain_fem_sws,critical,2/24/2017,22:37,top_img,false,5152,2,2_1_1_1,word_1_word_2_word_3,near,frog,Italian_Speech,adult,megan,,,,,,,,,female
Jmc8P,13,21,fem_plain,fem_sws,3,eye,sheep,sheep,frog,sheep,eye,fem_plain_fem_sws,critical,2/24/2017,22:37,left,true,876,1,2_1_1_1,word_1_word_2_word_3,near,sheep,Italian_Speech,adult,megan,,,,,,,,,female
Jmc8P,14,13,fem_plain,fem_sws,1,airplane,toothbrush,bread,bread,toothbrush,airplane,fem_plain_fem_sws,critical,2/24/2017,22:37,right,true,2744,1,2_1_1_0,word_3_word_1_word_2,different,airplane,Italian_Speech,adult,megan,,,,,,,,,female
Jmc8P,14,13,fem_plain,fem_sws,2,airplane,toothbrush,bread,bread,toothbrush,airplane,fem_plain_fem_sws,critical,2/24/2017,22:37,left,true,3948,1,2_1_1_0,word_3_word_1_word_2,different,toothbrush,Italian_Speech,adult,megan,,,,,,,,,female
Jmc8P,14,13,fem_plain,fem_sws,3,airplane,toothbrush,bread,bread,toothbrush,airplane,fem_plain_fem_sws,critical,2/24/2017,22:37,top_img,true,1244,1,2_1_1_0,word_3_word_1_word_2,different,bread,Italian_Speech,adult,megan,,,,,,,,,female
Jmc8P,15,18,fem_plain,fem_sws,1,camera,raspberry,raspberry,ball,camera,raspberry,fem_plain_fem_sws,critical,2/24/2017,22:37,left,true,2755,1,1_2_2_1,word_1_word_3_word_2,near,camera,Italian_Speech,adult,megan,,,,,,,,,female
Jmc8P,15,18,fem_plain,fem_sws,2,camera,raspberry,raspberry,ball,camera,raspberry,fem_plain_fem_sws,critical,2/24/2017,22:37,right,true,2333,2,1_2_2_1,word_1_word_3_word_2,near,raspberry,Italian_Speech,adult,megan,,,,,,,,,female
Jmc8P,15,18,fem_plain,fem_sws,3,camera,raspberry,raspberry,ball,camera,raspberry,fem_plain_fem_sws,critical,2/24/2017,22:37,top_img,false,909,1,1_2_2_1,word_1_word_3_word_2,near,ball,Italian_Speech,adult,megan,,,,,,,,,female
Jmc8P,16,3,fem_plain,fem_sws,1,nose,telephone,trousers,telephone,trousers,nose,fem_plain_fem_sws,critical,2/24/2017,22:37,right,true,3049,1,2_1_2_0,word_3_word_1_word_2,different,nose,Italian_Speech,adult,megan,,,,,,,,,female
Jmc8P,16,3,fem_plain,fem_sws,2,nose,telephone,trousers,telephone,trousers,nose,fem_plain_fem_sws,critical,2/24/2017,22:37,top_img,true,2482,1,2_1_2_0,word_3_word_1_word_2,different,telephone,Italian_Speech,adult,megan,,,,,,,,,female
Jmc8P,16,3,fem_plain,fem_sws,3,nose,telephone,trousers,telephone,trousers,nose,fem_plain_fem_sws,critical,2/24/2017,22:37,left,true,1438,1,2_1_2_0,word_3_word_1_word_2,different,trousers,Italian_Speech,adult,megan,,,,,,,,,female
Jmc8P,17,6,fem_plain,fem_sws,1,bird,carrot,peas,carrot,bird,peas,fem_plain_fem_sws,critical,2/24/2017,22:37,left,true,6523,2,2_1_2_0,word_3_word_1_word_2,different,bird,Italian_Speech,adult,megan,,,,,,,,,female
Jmc8P,17,6,fem_plain,fem_sws,2,bird,carrot,peas,carrot,bird,peas,fem_plain_fem_sws,critical,2/24/2017,22:37,top_img,true,2348,1,2_1_2_0,word_3_word_1_word_2,different,carrot,Italian_Speech,adult,megan,,,,,,,,,female
Jmc8P,17,6,fem_plain,fem_sws,3,bird,carrot,peas,carrot,bird,peas,fem_plain_fem_sws,critical,2/24/2017,22:37,right,true,1116,1,2_1_2_0,word_3_word_1_word_2,different,peas,Italian_Speech,adult,megan,,,,,,,,,female
Jmc8P,18,9,fem_plain,fem_sws,1,window,grapes,pizza,pizza,window,grapes,fem_plain_fem_sws,critical,2/24/2017,22:37,left,true,2500,1,2_1_1_0,word_1_word_2_word_3,different,window,Italian_Speech,adult,megan,,,,,,,,,female
Jmc8P,18,9,fem_plain,fem_sws,2,window,grapes,pizza,pizza,window,grapes,fem_plain_fem_sws,critical,2/24/2017,22:37,right,true,2683,2,2_1_1_0,word_1_word_2_word_3,different,grapes,Italian_Speech,adult,megan,,,,,,,,,female
Jmc8P,18,9,fem_plain,fem_sws,3,window,grapes,pizza,pizza,window,grapes,fem_plain_fem_sws,critical,2/24/2017,22:37,top_img,true,705,1,2_1_1_0,word_1_word_2_word_3,different,pizza,Italian_Speech,adult,megan,,,,,,,,,female
Jmc8P,19,20,fem_plain,fem_sws,1,apple,rabbit,jumper,apple,rabbit,jumper,fem_plain_fem_sws,critical,2/24/2017,22:37,right,false,3015,2,2_1_1_0,word_3_word_2_word_1,different,jumper,Italian_Speech,adult,megan,,,,,,,,,female
Jmc8P,19,20,fem_plain,fem_sws,2,apple,rabbit,jumper,apple,rabbit,jumper,fem_plain_fem_sws,critical,2/24/2017,22:37,left,true,2688,1,2_1_1_0,word_3_word_2_word_1,different,rabbit,Italian_Speech,adult,megan,,,,,,,,,female
Jmc8P,19,20,fem_plain,fem_sws,3,apple,rabbit,jumper,apple,rabbit,jumper,fem_plain_fem_sws,critical,2/24/2017,22:37,top_img,false,803,1,2_1_1_0,word_3_word_2_word_1,different,apple,Italian_Speech,adult,megan,,,,,,,,,female
Jmc8P,20,10,fem_plain,fem_sws,1,pig,hat,pig,pig,hat,tshirt,fem_plain_fem_sws,critical,2/24/2017,22:37,left,false,4500,2,2_1_2_1,word_1_word_3_word_2,far,hat,Italian_Speech,adult,megan,,,,,,,,,female
Jmc8P,20,10,fem_plain,fem_sws,2,pig,hat,pig,pig,hat,tshirt,fem_plain_fem_sws,critical,2/24/2017,22:37,left,true,3171,1,2_1_2_1,word_1_word_3_word_2,far,hat,Italian_Speech,adult,megan,,,,,,,,,female
Jmc8P,20,10,fem_plain,fem_sws,3,pig,hat,pig,pig,hat,tshirt,fem_plain_fem_sws,critical,2/24/2017,22:37,top_img,true,2725,1,2_1_2_1,word_1_word_3_word_2,far,pig,Italian_Speech,adult,megan,,,,,,,,,female
Jmc8P,21,7,fem_plain,fem_sws,1,cat,horse,horse,lolly,cat,horse,fem_plain_fem_sws,critical,2/24/2017,22:37,left,true,3876,1,1_2_2_1,word_1_word_3_word_2,near,cat,Italian_Speech,adult,megan,,,,,,,,,female
Jmc8P,21,7,fem_plain,fem_sws,2,cat,horse,horse,lolly,cat,horse,fem_plain_fem_sws,critical,2/24/2017,22:37,right,true,3618,1,1_2_2_1,word_1_word_3_word_2,near,horse,Italian_Speech,adult,megan,,,,,,,,,female
Jmc8P,21,7,fem_plain,fem_sws,3,cat,horse,horse,lolly,cat,horse,fem_plain_fem_sws,critical,2/24/2017,22:37,top_img,false,1436,1,1_2_2_1,word_1_word_3_word_2,near,lolly,Italian_Speech,adult,megan,,,,,,,,,female
Jmc8P,22,14,fem_plain,fem_sws,1,shoes,door,cheese,cheese,shoes,door,fem_plain_fem_sws,critical,2/24/2017,22:37,right,false,3352,1,1_2_2_0,word_1_word_2_word_3,different,door,Italian_Speech,adult,megan,,,,,,,,,female
Jmc8P,22,14,fem_plain,fem_sws,2,shoes,door,cheese,cheese,shoes,door,fem_plain_fem_sws,critical,2/24/2017,22:37,right,true,1909,1,1_2_2_0,word_1_word_2_word_3,different,door,Italian_Speech,adult,megan,,,,,,,,,female
Jmc8P,22,14,fem_plain,fem_sws,3,shoes,door,cheese,cheese,shoes,door,fem_plain_fem_sws,critical,2/24/2017,22:37,top_img,true,926,2,1_2_2_0,word_1_word_2_word_3,different,cheese,Italian_Speech,adult,megan,,,,,,,,,female
Jmc8P,23,15,fem_plain,fem_sws,1,pencil,beans,beans,slide,beans,pencil,fem_plain_fem_sws,critical,2/24/2017,22:37,top_img,false,7295,2,2_1_1_1,word_1_word_3_word_2,near,slide,Italian_Speech,adult,megan,,,,,,,,,female
Jmc8P,23,15,fem_plain,fem_sws,2,pencil,beans,beans,slide,beans,pencil,fem_plain_fem_sws,critical,2/24/2017,22:37,right,false,5353,1,2_1_1_1,word_1_word_3_word_2,near,pencil,Italian_Speech,adult,megan,,,,,,,,,female
Jmc8P,23,15,fem_plain,fem_sws,3,pencil,beans,beans,slide,beans,pencil,fem_plain_fem_sws,critical,2/24/2017,22:37,left,true,2613,1,2_1_1_1,word_1_word_3_word_2,near,beans,Italian_Speech,adult,megan,,,,,,,,,female
Jmc8P,24,19,fem_plain,fem_sws,1,santa,tree,santa,building_blocks,tree,santa,fem_plain_fem_sws,critical,2/24/2017,22:37,top_img,false,8722,2,1_2_1_1,word_2_word_3_word_1,far,building_blocks,Italian_Speech,adult,megan,,,,,,,,,female
Jmc8P,24,19,fem_plain,fem_sws,2,santa,tree,santa,building_blocks,tree,santa,fem_plain_fem_sws,critical,2/24/2017,22:37,left,true,3550,1,1_2_1_1,word_2_word_3_word_1,far,tree,Italian_Speech,adult,megan,,,,,,,,,female
Jmc8P,24,19,fem_plain,fem_sws,3,santa,tree,santa,building_blocks,tree,santa,fem_plain_fem_sws,critical,2/24/2017,22:37,right,true,917,1,1_2_1_1,word_2_word_3_word_1,far,santa,Italian_Speech,adult,megan,,,,,,,,,female
Jmc8P,25,11,fem_plain,fem_sws,1,book,lorry,book,lorry,cow,book,fem_plain_fem_sws,critical,2/24/2017,22:37,right,true,3164,2,1_2_1_1,word_2_word_3_word_1,far,book,Italian_Speech,adult,megan,,,,,,,,,female
Jmc8P,25,11,fem_plain,fem_sws,2,book,lorry,book,lorry,cow,book,fem_plain_fem_sws,critical,2/24/2017,22:37,left,false,5669,1,1_2_1_1,word_2_word_3_word_1,far,cow,Italian_Speech,adult,megan,,,,,,,,,female
Jmc8P,25,11,fem_plain,fem_sws,3,book,lorry,book,lorry,cow,book,fem_plain_fem_sws,critical,2/24/2017,22:37,top_img,false,992,1,1_2_1_1,word_2_word_3_word_1,far,lorry,Italian_Speech,adult,megan,,,,,,,,,female
