subject_id,trial_number,trial_id,plain,sws,instruction_number,sound1_item,sound2_item,sound3_item,top_image,left_image,right_image,sound_gender,trial_type,date_stamp,time_stamp,side_chosen,accuracy,rt,play_counter,order,pic_position,distance,chosen_pic,test_lang,testing_loc,tester,date_of_birth,ethnicity,native_lang,other_langs,parental_occ,dev_info,birth_order,num_siblings,gender
LgVa9,1,0,fem_plain,fem_sws,1,glasses,fireman,fireman,tractor,glasses,fireman,fem_plain_fem_sws,training,2/14/2017,10:39,left,true,1630,2,1_2_2_1,word_3_word_2_word_1,near,glasses,Italian_Speech,adult,megan,,,,,,,,,male
LgVa9,1,0,fem_plain,fem_sws,2,glasses,fireman,fireman,tractor,glasses,fireman,fem_plain_fem_sws,training,2/14/2017,10:39,right,true,3020,1,1_2_2_1,word_3_word_2_word_1,near,fireman,Italian_Speech,adult,megan,,,,,,,,,male
LgVa9,1,0,fem_plain,fem_sws,3,glasses,fireman,fireman,tractor,glasses,fireman,fem_plain_fem_sws,training,2/14/2017,10:39,right,true,2029,3,1_2_2_1,word_3_word_2_word_1,near,fireman,Italian_Speech,adult,megan,,,,,,,,,male
LgVa9,2,11,fem_plain,fem_sws,1,book,cow,book,cow,book,lorry,fem_plain_fem_sws,critical,2/14/2017,10:39,left,true,2410,1,1_2_1_1,word_3_word_1_word_2,far,book,Italian_Speech,adult,megan,,,,,,,,,male
LgVa9,2,11,fem_plain,fem_sws,2,book,cow,book,cow,book,lorry,fem_plain_fem_sws,critical,2/14/2017,10:39,top_img,true,3138,1,1_2_1_1,word_3_word_1_word_2,far,cow,Italian_Speech,adult,megan,,,,,,,,,male
LgVa9,2,11,fem_plain,fem_sws,3,book,cow,book,cow,book,lorry,fem_plain_fem_sws,critical,2/14/2017,10:39,left,true,2669,1,1_2_1_1,word_3_word_1_word_2,far,book,Italian_Speech,adult,megan,,,,,,,,,male
LgVa9,3,6,fem_plain,fem_sws,1,peas,bird,carrot,bird,carrot,peas,fem_plain_fem_sws,critical,2/14/2017,10:39,right,true,1950,2,1_2_2_0,word_1_word_3_word_2,different,peas,Italian_Speech,adult,megan,,,,,,,,,male
LgVa9,3,6,fem_plain,fem_sws,2,peas,bird,carrot,bird,carrot,peas,fem_plain_fem_sws,critical,2/14/2017,10:39,top_img,true,2231,1,1_2_2_0,word_1_word_3_word_2,different,bird,Italian_Speech,adult,megan,,,,,,,,,male
LgVa9,3,6,fem_plain,fem_sws,3,peas,bird,carrot,bird,carrot,peas,fem_plain_fem_sws,critical,2/14/2017,10:39,left,true,2190,3,1_2_2_0,word_1_word_3_word_2,different,carrot,Italian_Speech,adult,megan,,,,,,,,,male
LgVa9,4,17,fem_plain,fem_sws,1,cake,ambulance,ambulance,ambulance,hand,cake,fem_plain_fem_sws,critical,2/14/2017,10:39,right,true,2092,1,2_1_1_1,word_2_word_3_word_1,near,cake,Italian_Speech,adult,megan,,,,,,,,,male
LgVa9,4,17,fem_plain,fem_sws,2,cake,ambulance,ambulance,ambulance,hand,cake,fem_plain_fem_sws,critical,2/14/2017,10:39,top_img,true,1937,1,2_1_1_1,word_2_word_3_word_1,near,ambulance,Italian_Speech,adult,megan,,,,,,,,,male
LgVa9,4,17,fem_plain,fem_sws,3,cake,ambulance,ambulance,ambulance,hand,cake,fem_plain_fem_sws,critical,2/14/2017,10:39,top_img,true,1327,2,2_1_1_1,word_2_word_3_word_1,near,ambulance,Italian_Speech,adult,megan,,,,,,,,,male
LgVa9,5,14,fem_plain,fem_sws,1,door,cheese,door,cheese,door,shoes,fem_plain_fem_sws,critical,2/14/2017,10:39,left,true,1943,1,1_2_1_1,word_1_word_3_word_2,far,door,Italian_Speech,adult,megan,,,,,,,,,male
LgVa9,5,14,fem_plain,fem_sws,2,door,cheese,door,cheese,door,shoes,fem_plain_fem_sws,critical,2/14/2017,10:39,top_img,true,1718,1,1_2_1_1,word_1_word_3_word_2,far,cheese,Italian_Speech,adult,megan,,,,,,,,,male
LgVa9,5,14,fem_plain,fem_sws,3,door,cheese,door,cheese,door,shoes,fem_plain_fem_sws,critical,2/14/2017,10:39,left,true,1836,1,1_2_1_1,word_1_word_3_word_2,far,door,Italian_Speech,adult,megan,,,,,,,,,male
LgVa9,6,24,fem_plain,fem_sws,1,sink,socks,fish,socks,fish,sink,fem_plain_fem_sws,critical,2/14/2017,10:39,right,true,3106,1,2_1_1_0,word_3_word_2_word_1,different,sink,Italian_Speech,adult,megan,,,,,,,,,male
LgVa9,6,24,fem_plain,fem_sws,2,sink,socks,fish,socks,fish,sink,fem_plain_fem_sws,critical,2/14/2017,10:39,top_img,true,3454,1,2_1_1_0,word_3_word_2_word_1,different,socks,Italian_Speech,adult,megan,,,,,,,,,male
LgVa9,6,24,fem_plain,fem_sws,3,sink,socks,fish,socks,fish,sink,fem_plain_fem_sws,critical,2/14/2017,10:39,left,true,2773,4,2_1_1_0,word_3_word_2_word_1,different,fish,Italian_Speech,adult,megan,,,,,,,,,male
LgVa9,7,15,fem_plain,fem_sws,1,beans,pencil,slide,slide,beans,pencil,fem_plain_fem_sws,critical,2/14/2017,10:39,left,true,5448,1,2_1_1_0,word_1_word_3_word_2,different,beans,Italian_Speech,adult,megan,,,,,,,,,male
LgVa9,7,15,fem_plain,fem_sws,2,beans,pencil,slide,slide,beans,pencil,fem_plain_fem_sws,critical,2/14/2017,10:39,right,true,2165,1,2_1_1_0,word_1_word_3_word_2,different,pencil,Italian_Speech,adult,megan,,,,,,,,,male
LgVa9,7,15,fem_plain,fem_sws,3,beans,pencil,slide,slide,beans,pencil,fem_plain_fem_sws,critical,2/14/2017,10:39,top_img,true,3748,3,2_1_1_0,word_1_word_3_word_2,different,slide,Italian_Speech,adult,megan,,,,,,,,,male
LgVa9,8,10,fem_plain,fem_sws,1,pig,tshirt,hat,pig,tshirt,hat,fem_plain_fem_sws,critical,2/14/2017,10:39,top_img,true,1864,1,1_2_2_0,word_1_word_2_word_3,different,pig,Italian_Speech,adult,megan,,,,,,,,,male
LgVa9,8,10,fem_plain,fem_sws,2,pig,tshirt,hat,pig,tshirt,hat,fem_plain_fem_sws,critical,2/14/2017,10:39,left,true,3755,1,1_2_2_0,word_1_word_2_word_3,different,tshirt,Italian_Speech,adult,megan,,,,,,,,,male
LgVa9,8,10,fem_plain,fem_sws,3,pig,tshirt,hat,pig,tshirt,hat,fem_plain_fem_sws,critical,2/14/2017,10:39,top_img,false,1558,2,1_2_2_0,word_1_word_2_word_3,different,pig,Italian_Speech,adult,megan,,,,,,,,,male
LgVa9,9,1,fem_plain,fem_sws,1,spoon,baby,baby,spoon,train,baby,fem_plain_fem_sws,critical,2/14/2017,10:39,top_img,true,2344,1,1_2_2_1,word_1_word_3_word_2,near,spoon,Italian_Speech,adult,megan,,,,,,,,,male
LgVa9,9,1,fem_plain,fem_sws,2,spoon,baby,baby,spoon,train,baby,fem_plain_fem_sws,critical,2/14/2017,10:39,right,true,2150,1,1_2_2_1,word_1_word_3_word_2,near,baby,Italian_Speech,adult,megan,,,,,,,,,male
LgVa9,9,1,fem_plain,fem_sws,3,spoon,baby,baby,spoon,train,baby,fem_plain_fem_sws,critical,2/14/2017,10:39,right,true,2097,1,1_2_2_1,word_1_word_3_word_2,near,baby,Italian_Speech,adult,megan,,,,,,,,,male
LgVa9,10,9,fem_plain,fem_sws,1,pizza,window,grapes,window,grapes,pizza,fem_plain_fem_sws,critical,2/14/2017,10:39,right,true,2051,1,2_1_2_0,word_2_word_3_word_1,different,pizza,Italian_Speech,adult,megan,,,,,,,,,male
LgVa9,10,9,fem_plain,fem_sws,2,pizza,window,grapes,window,grapes,pizza,fem_plain_fem_sws,critical,2/14/2017,10:39,top_img,true,2207,1,2_1_2_0,word_2_word_3_word_1,different,window,Italian_Speech,adult,megan,,,,,,,,,male
LgVa9,10,9,fem_plain,fem_sws,3,pizza,window,grapes,window,grapes,pizza,fem_plain_fem_sws,critical,2/14/2017,10:39,left,true,1558,3,2_1_2_0,word_2_word_3_word_1,different,grapes,Italian_Speech,adult,megan,,,,,,,,,male
LgVa9,11,8,fem_plain,fem_sws,1,ear,wellboots,ear,wellboots,ear,fire_engine,fem_plain_fem_sws,critical,2/14/2017,10:39,left,true,2179,1,2_1_2_1,word_1_word_3_word_2,far,ear,Italian_Speech,adult,megan,,,,,,,,,male
LgVa9,11,8,fem_plain,fem_sws,2,ear,wellboots,ear,wellboots,ear,fire_engine,fem_plain_fem_sws,critical,2/14/2017,10:39,top_img,true,3894,1,2_1_2_1,word_1_word_3_word_2,far,wellboots,Italian_Speech,adult,megan,,,,,,,,,male
LgVa9,11,8,fem_plain,fem_sws,3,ear,wellboots,ear,wellboots,ear,fire_engine,fem_plain_fem_sws,critical,2/14/2017,10:39,left,true,2304,1,2_1_2_1,word_1_word_3_word_2,far,ear,Italian_Speech,adult,megan,,,,,,,,,male
LgVa9,12,20,fem_plain,fem_sws,1,jumper,apple,apple,jumper,rabbit,apple,fem_plain_fem_sws,critical,2/14/2017,10:39,top_img,true,1834,1,2_1_1_1,word_1_word_2_word_3,near,jumper,Italian_Speech,adult,megan,,,,,,,,,male
LgVa9,12,20,fem_plain,fem_sws,2,jumper,apple,apple,jumper,rabbit,apple,fem_plain_fem_sws,critical,2/14/2017,10:39,right,true,3312,1,2_1_1_1,word_1_word_2_word_3,near,apple,Italian_Speech,adult,megan,,,,,,,,,male
LgVa9,12,20,fem_plain,fem_sws,3,jumper,apple,apple,jumper,rabbit,apple,fem_plain_fem_sws,critical,2/14/2017,10:39,right,true,3590,1,2_1_1_1,word_1_word_2_word_3,near,apple,Italian_Speech,adult,megan,,,,,,,,,male
LgVa9,13,22,fem_plain,fem_sws,1,doctor,bike,dog,dog,doctor,bike,fem_plain_fem_sws,critical,2/14/2017,10:39,left,true,1922,1,2_1_1_0,word_2_word_3_word_1,different,doctor,Italian_Speech,adult,megan,,,,,,,,,male
LgVa9,13,22,fem_plain,fem_sws,2,doctor,bike,dog,dog,doctor,bike,fem_plain_fem_sws,critical,2/14/2017,10:39,right,true,2738,1,2_1_1_0,word_2_word_3_word_1,different,bike,Italian_Speech,adult,megan,,,,,,,,,male
LgVa9,13,22,fem_plain,fem_sws,3,doctor,bike,dog,dog,doctor,bike,fem_plain_fem_sws,critical,2/14/2017,10:39,left,false,2485,2,2_1_1_0,word_2_word_3_word_1,different,doctor,Italian_Speech,adult,megan,,,,,,,,,male
LgVa9,14,3,fem_plain,fem_sws,1,trousers,nose,nose,nose,telephone,trousers,fem_plain_fem_sws,critical,2/14/2017,10:39,right,true,1835,1,1_2_2_1,word_2_word_3_word_1,near,trousers,Italian_Speech,adult,megan,,,,,,,,,male
LgVa9,14,3,fem_plain,fem_sws,2,trousers,nose,nose,nose,telephone,trousers,fem_plain_fem_sws,critical,2/14/2017,10:39,top_img,true,2322,1,1_2_2_1,word_2_word_3_word_1,near,nose,Italian_Speech,adult,megan,,,,,,,,,male
LgVa9,14,3,fem_plain,fem_sws,3,trousers,nose,nose,nose,telephone,trousers,fem_plain_fem_sws,critical,2/14/2017,10:39,top_img,true,2749,1,1_2_2_1,word_2_word_3_word_1,near,nose,Italian_Speech,adult,megan,,,,,,,,,male
LgVa9,15,16,fem_plain,fem_sws,1,chair,banana,paintbrush,chair,banana,paintbrush,fem_plain_fem_sws,critical,2/14/2017,10:39,top_img,true,3234,1,2_1_1_0,word_3_word_2_word_1,different,chair,Italian_Speech,adult,megan,,,,,,,,,male
LgVa9,15,16,fem_plain,fem_sws,2,chair,banana,paintbrush,chair,banana,paintbrush,fem_plain_fem_sws,critical,2/14/2017,10:39,left,true,2258,1,2_1_1_0,word_3_word_2_word_1,different,banana,Italian_Speech,adult,megan,,,,,,,,,male
LgVa9,15,16,fem_plain,fem_sws,3,chair,banana,paintbrush,chair,banana,paintbrush,fem_plain_fem_sws,critical,2/14/2017,10:39,right,true,2630,3,2_1_1_0,word_3_word_2_word_1,different,paintbrush,Italian_Speech,adult,megan,,,,,,,,,male
LgVa9,16,21,fem_plain,fem_sws,1,frog,eye,sheep,eye,sheep,frog,fem_plain_fem_sws,critical,2/14/2017,10:39,right,true,2601,1,2_1_2_0,word_3_word_2_word_1,different,frog,Italian_Speech,adult,megan,,,,,,,,,male
LgVa9,16,21,fem_plain,fem_sws,2,frog,eye,sheep,eye,sheep,frog,fem_plain_fem_sws,critical,2/14/2017,10:39,top_img,true,1903,1,2_1_2_0,word_3_word_2_word_1,different,eye,Italian_Speech,adult,megan,,,,,,,,,male
LgVa9,16,21,fem_plain,fem_sws,3,frog,eye,sheep,eye,sheep,frog,fem_plain_fem_sws,critical,2/14/2017,10:39,left,true,2035,2,2_1_2_0,word_3_word_2_word_1,different,sheep,Italian_Speech,adult,megan,,,,,,,,,male
LgVa9,17,7,fem_plain,fem_sws,1,horse,cat,horse,lolly,horse,cat,fem_plain_fem_sws,critical,2/14/2017,10:39,left,true,3074,1,2_1_2_1,word_1_word_2_word_3,far,horse,Italian_Speech,adult,megan,,,,,,,,,male
LgVa9,17,7,fem_plain,fem_sws,2,horse,cat,horse,lolly,horse,cat,fem_plain_fem_sws,critical,2/14/2017,10:39,right,true,2664,1,2_1_2_1,word_1_word_2_word_3,far,cat,Italian_Speech,adult,megan,,,,,,,,,male
LgVa9,17,7,fem_plain,fem_sws,3,horse,cat,horse,lolly,horse,cat,fem_plain_fem_sws,critical,2/14/2017,10:39,left,true,3492,1,2_1_2_1,word_1_word_2_word_3,far,horse,Italian_Speech,adult,megan,,,,,,,,,male
LgVa9,18,4,fem_plain,fem_sws,1,coat,strawberry,flower,strawberry,flower,coat,fem_plain_fem_sws,critical,2/14/2017,10:39,right,true,2738,1,2_1_1_0,word_2_word_3_word_1,different,coat,Italian_Speech,adult,megan,,,,,,,,,male
LgVa9,18,4,fem_plain,fem_sws,2,coat,strawberry,flower,strawberry,flower,coat,fem_plain_fem_sws,critical,2/14/2017,10:39,top_img,true,1496,1,2_1_1_0,word_2_word_3_word_1,different,strawberry,Italian_Speech,adult,megan,,,,,,,,,male
LgVa9,18,4,fem_plain,fem_sws,3,coat,strawberry,flower,strawberry,flower,coat,fem_plain_fem_sws,critical,2/14/2017,10:39,left,true,1343,2,2_1_1_0,word_2_word_3_word_1,different,flower,Italian_Speech,adult,megan,,,,,,,,,male
LgVa9,19,19,fem_plain,fem_sws,1,building_blocks,tree,santa,santa,building_blocks,tree,fem_plain_fem_sws,critical,2/14/2017,10:39,left,true,4910,1,2_1_2_0,word_1_word_2_word_3,different,building_blocks,Italian_Speech,adult,megan,,,,,,,,,male
LgVa9,19,19,fem_plain,fem_sws,2,building_blocks,tree,santa,santa,building_blocks,tree,fem_plain_fem_sws,critical,2/14/2017,10:39,right,true,2133,1,2_1_2_0,word_1_word_2_word_3,different,tree,Italian_Speech,adult,megan,,,,,,,,,male
LgVa9,19,19,fem_plain,fem_sws,3,building_blocks,tree,santa,santa,building_blocks,tree,fem_plain_fem_sws,critical,2/14/2017,10:39,top_img,true,3426,2,2_1_2_0,word_1_word_2_word_3,different,santa,Italian_Speech,adult,megan,,,,,,,,,male
LgVa9,20,13,fem_plain,fem_sws,1,toothbrush,bread,airplane,airplane,bread,toothbrush,fem_plain_fem_sws,critical,2/14/2017,10:39,right,true,3165,1,1_2_2_0,word_2_word_3_word_1,different,toothbrush,Italian_Speech,adult,megan,,,,,,,,,male
LgVa9,20,13,fem_plain,fem_sws,2,toothbrush,bread,airplane,airplane,bread,toothbrush,fem_plain_fem_sws,critical,2/14/2017,10:39,left,true,2714,1,1_2_2_0,word_2_word_3_word_1,different,bread,Italian_Speech,adult,megan,,,,,,,,,male
LgVa9,20,13,fem_plain,fem_sws,3,toothbrush,bread,airplane,airplane,bread,toothbrush,fem_plain_fem_sws,critical,2/14/2017,10:39,top_img,true,2156,1,1_2_2_0,word_2_word_3_word_1,different,airplane,Italian_Speech,adult,megan,,,,,,,,,male
LgVa9,21,23,fem_plain,fem_sws,1,bath,table,teddy_bear,bath,table,teddy_bear,fem_plain_fem_sws,critical,2/14/2017,10:39,top_img,true,4226,1,2_1_1_0,word_1_word_3_word_2,different,bath,Italian_Speech,adult,megan,,,,,,,,,male
LgVa9,21,23,fem_plain,fem_sws,2,bath,table,teddy_bear,bath,table,teddy_bear,fem_plain_fem_sws,critical,2/14/2017,10:39,left,true,2890,1,2_1_1_0,word_1_word_3_word_2,different,table,Italian_Speech,adult,megan,,,,,,,,,male
LgVa9,21,23,fem_plain,fem_sws,3,bath,table,teddy_bear,bath,table,teddy_bear,fem_plain_fem_sws,critical,2/14/2017,10:39,right,true,2614,2,2_1_1_0,word_1_word_3_word_2,different,teddy_bear,Italian_Speech,adult,megan,,,,,,,,,male
LgVa9,22,12,fem_plain,fem_sws,1,gloves,yoghurt,gloves,foot,gloves,yoghurt,fem_plain_fem_sws,critical,2/14/2017,10:39,left,true,3224,1,1_2_1_1,word_1_word_3_word_2,far,gloves,Italian_Speech,adult,megan,,,,,,,,,male
LgVa9,22,12,fem_plain,fem_sws,2,gloves,yoghurt,gloves,foot,gloves,yoghurt,fem_plain_fem_sws,critical,2/14/2017,10:39,right,true,2281,1,1_2_1_1,word_1_word_3_word_2,far,yoghurt,Italian_Speech,adult,megan,,,,,,,,,male
LgVa9,22,12,fem_plain,fem_sws,3,gloves,yoghurt,gloves,foot,gloves,yoghurt,fem_plain_fem_sws,critical,2/14/2017,10:39,left,true,3012,1,1_2_1_1,word_1_word_3_word_2,far,gloves,Italian_Speech,adult,megan,,,,,,,,,male
LgVa9,23,5,fem_plain,fem_sws,1,orange,car,car,mouth,orange,car,fem_plain_fem_sws,critical,2/14/2017,10:39,left,true,2661,1,2_1_1_1,word_3_word_1_word_2,near,orange,Italian_Speech,adult,megan,,,,,,,,,male
LgVa9,23,5,fem_plain,fem_sws,2,orange,car,car,mouth,orange,car,fem_plain_fem_sws,critical,2/14/2017,10:39,right,true,1758,1,2_1_1_1,word_3_word_1_word_2,near,car,Italian_Speech,adult,megan,,,,,,,,,male
LgVa9,23,5,fem_plain,fem_sws,3,orange,car,car,mouth,orange,car,fem_plain_fem_sws,critical,2/14/2017,10:39,right,true,1766,1,2_1_1_1,word_3_word_1_word_2,near,car,Italian_Speech,adult,megan,,,,,,,,,male
LgVa9,24,2,fem_plain,fem_sws,1,fork,chicken,fork,fork,chicken,bed,fem_plain_fem_sws,critical,2/14/2017,10:39,top_img,true,1784,1,2_1_2_1,word_3_word_2_word_1,far,fork,Italian_Speech,adult,megan,,,,,,,,,male
LgVa9,24,2,fem_plain,fem_sws,2,fork,chicken,fork,fork,chicken,bed,fem_plain_fem_sws,critical,2/14/2017,10:39,left,true,2708,1,2_1_2_1,word_3_word_2_word_1,far,chicken,Italian_Speech,adult,megan,,,,,,,,,male
LgVa9,24,2,fem_plain,fem_sws,3,fork,chicken,fork,fork,chicken,bed,fem_plain_fem_sws,critical,2/14/2017,10:39,top_img,true,1844,2,2_1_2_1,word_3_word_2_word_1,far,fork,Italian_Speech,adult,megan,,,,,,,,,male
LgVa9,25,18,fem_plain,fem_sws,1,raspberry,camera,raspberry,ball,raspberry,camera,fem_plain_fem_sws,critical,2/14/2017,10:39,left,true,6068,2,1_2_1_1,word_1_word_2_word_3,far,raspberry,Italian_Speech,adult,megan,,,,,,,,,male
LgVa9,25,18,fem_plain,fem_sws,2,raspberry,camera,raspberry,ball,raspberry,camera,fem_plain_fem_sws,critical,2/14/2017,10:39,right,true,2769,1,1_2_1_1,word_1_word_2_word_3,far,camera,Italian_Speech,adult,megan,,,,,,,,,male
LgVa9,25,18,fem_plain,fem_sws,3,raspberry,camera,raspberry,ball,raspberry,camera,fem_plain_fem_sws,critical,2/14/2017,10:39,left,true,2445,1,1_2_1_1,word_1_word_2_word_3,far,raspberry,Italian_Speech,adult,megan,,,,,,,,,male
