subject_id,trial_number,trial_id,plain,sws,instruction_number,sound1_item,sound2_item,sound3_item,top_image,left_image,right_image,sound_gender,trial_type,date_stamp,time_stamp,side_chosen,accuracy,rt,play_counter,order,pic_position,distance,chosen_pic,test_lang,testing_loc,tester,date_of_birth,ethnicity,native_lang,other_langs,parental_occ,dev_info,birth_order,num_siblings,gender
tPVsB,1,0,mal_plain,fem_sws,1,glasses,fireman,glasses,tractor,fireman,glasses,mal_plain_fem_sws,training,2/26/2017,15:38,left,false,21812,2,2_1_2_1,word_3_word_1_word_2,far,fireman,Italian_Speech,adult,katy,,,,,,,,,male
tPVsB,1,0,mal_plain,fem_sws,2,glasses,fireman,glasses,tractor,fireman,glasses,mal_plain_fem_sws,training,2/26/2017,15:38,right,false,12217,1,2_1_2_1,word_3_word_1_word_2,far,glasses,Italian_Speech,adult,katy,,,,,,,,,male
tPVsB,1,0,mal_plain,fem_sws,3,glasses,fireman,glasses,tractor,fireman,glasses,mal_plain_fem_sws,training,2/26/2017,15:38,left,false,6193,1,2_1_2_1,word_3_word_1_word_2,far,fireman,Italian_Speech,adult,katy,,,,,,,,,male
tPVsB,2,15,mal_plain,fem_sws,1,pencil,slide,beans,slide,pencil,beans,mal_plain_fem_sws,critical,2/26/2017,15:38,right,false,6409,3,2_1_1_0,word_1_word_2_word_3,different,beans,Italian_Speech,adult,katy,,,,,,,,,male
tPVsB,2,15,mal_plain,fem_sws,2,pencil,slide,beans,slide,pencil,beans,mal_plain_fem_sws,critical,2/26/2017,15:38,left,false,5301,1,2_1_1_0,word_1_word_2_word_3,different,pencil,Italian_Speech,adult,katy,,,,,,,,,male
tPVsB,2,15,mal_plain,fem_sws,3,pencil,slide,beans,slide,pencil,beans,mal_plain_fem_sws,critical,2/26/2017,15:38,right,true,8433,1,2_1_1_0,word_1_word_2_word_3,different,beans,Italian_Speech,adult,katy,,,,,,,,,male
tPVsB,3,10,mal_plain,fem_sws,1,tshirt,pig,pig,hat,tshirt,pig,mal_plain_fem_sws,critical,2/26/2017,15:38,right,false,11391,2,2_1_1_1,word_3_word_2_word_1,near,pig,Italian_Speech,adult,katy,,,,,,,,,male
tPVsB,3,10,mal_plain,fem_sws,2,tshirt,pig,pig,hat,tshirt,pig,mal_plain_fem_sws,critical,2/26/2017,15:38,top_img,false,4921,1,2_1_1_1,word_3_word_2_word_1,near,hat,Italian_Speech,adult,katy,,,,,,,,,male
tPVsB,3,10,mal_plain,fem_sws,3,tshirt,pig,pig,hat,tshirt,pig,mal_plain_fem_sws,critical,2/26/2017,15:38,top_img,false,2973,1,2_1_1_1,word_3_word_2_word_1,near,hat,Italian_Speech,adult,katy,,,,,,,,,male
tPVsB,4,22,mal_plain,fem_sws,1,doctor,dog,doctor,dog,doctor,bike,mal_plain_fem_sws,critical,2/26/2017,15:38,left,true,5283,2,2_1_2_1,word_2_word_3_word_1,far,doctor,Italian_Speech,adult,katy,,,,,,,,,male
tPVsB,4,22,mal_plain,fem_sws,2,doctor,dog,doctor,dog,doctor,bike,mal_plain_fem_sws,critical,2/26/2017,15:38,top_img,true,4018,1,2_1_2_1,word_2_word_3_word_1,far,dog,Italian_Speech,adult,katy,,,,,,,,,male
tPVsB,4,22,mal_plain,fem_sws,3,doctor,dog,doctor,dog,doctor,bike,mal_plain_fem_sws,critical,2/26/2017,15:38,left,true,3585,1,2_1_2_1,word_2_word_3_word_1,far,doctor,Italian_Speech,adult,katy,,,,,,,,,male
tPVsB,5,16,mal_plain,fem_sws,1,paintbrush,banana,chair,chair,paintbrush,banana,mal_plain_fem_sws,critical,2/26/2017,15:38,left,true,5847,2,2_1_1_0,word_3_word_1_word_2,different,paintbrush,Italian_Speech,adult,katy,,,,,,,,,male
tPVsB,5,16,mal_plain,fem_sws,2,paintbrush,banana,chair,chair,paintbrush,banana,mal_plain_fem_sws,critical,2/26/2017,15:38,right,true,3266,1,2_1_1_0,word_3_word_1_word_2,different,banana,Italian_Speech,adult,katy,,,,,,,,,male
tPVsB,5,16,mal_plain,fem_sws,3,paintbrush,banana,chair,chair,paintbrush,banana,mal_plain_fem_sws,critical,2/26/2017,15:38,left,false,4419,1,2_1_1_0,word_3_word_1_word_2,different,paintbrush,Italian_Speech,adult,katy,,,,,,,,,male
tPVsB,6,21,mal_plain,fem_sws,1,sheep,frog,sheep,frog,eye,sheep,mal_plain_fem_sws,critical,2/26/2017,15:38,right,true,12047,3,1_2_1_1,word_1_word_3_word_2,far,sheep,Italian_Speech,adult,katy,,,,,,,,,male
tPVsB,6,21,mal_plain,fem_sws,2,sheep,frog,sheep,frog,eye,sheep,mal_plain_fem_sws,critical,2/26/2017,15:38,top_img,true,5164,1,1_2_1_1,word_1_word_3_word_2,far,frog,Italian_Speech,adult,katy,,,,,,,,,male
tPVsB,6,21,mal_plain,fem_sws,3,sheep,frog,sheep,frog,eye,sheep,mal_plain_fem_sws,critical,2/26/2017,15:38,right,true,4371,1,1_2_1_1,word_1_word_3_word_2,far,sheep,Italian_Speech,adult,katy,,,,,,,,,male
tPVsB,7,6,mal_plain,fem_sws,1,peas,carrot,bird,bird,carrot,peas,mal_plain_fem_sws,critical,2/26/2017,15:38,right,true,3111,2,2_1_1_0,word_1_word_3_word_2,different,peas,Italian_Speech,adult,katy,,,,,,,,,male
tPVsB,7,6,mal_plain,fem_sws,2,peas,carrot,bird,bird,carrot,peas,mal_plain_fem_sws,critical,2/26/2017,15:38,left,true,4374,1,2_1_1_0,word_1_word_3_word_2,different,carrot,Italian_Speech,adult,katy,,,,,,,,,male
tPVsB,7,6,mal_plain,fem_sws,3,peas,carrot,bird,bird,carrot,peas,mal_plain_fem_sws,critical,2/26/2017,15:38,right,false,3251,1,2_1_1_0,word_1_word_3_word_2,different,peas,Italian_Speech,adult,katy,,,,,,,,,male
tPVsB,8,9,mal_plain,fem_sws,1,window,pizza,grapes,grapes,pizza,window,mal_plain_fem_sws,critical,2/26/2017,15:38,right,true,9694,1,2_1_1_0,word_3_word_1_word_2,different,window,Italian_Speech,adult,katy,,,,,,,,,male
tPVsB,8,9,mal_plain,fem_sws,2,window,pizza,grapes,grapes,pizza,window,mal_plain_fem_sws,critical,2/26/2017,15:38,left,true,3730,2,2_1_1_0,word_3_word_1_word_2,different,pizza,Italian_Speech,adult,katy,,,,,,,,,male
tPVsB,8,9,mal_plain,fem_sws,3,window,pizza,grapes,grapes,pizza,window,mal_plain_fem_sws,critical,2/26/2017,15:38,top_img,true,4219,1,2_1_1_0,word_3_word_1_word_2,different,grapes,Italian_Speech,adult,katy,,,,,,,,,male
tPVsB,9,14,mal_plain,fem_sws,1,cheese,door,shoes,shoes,cheese,door,mal_plain_fem_sws,critical,2/26/2017,15:38,left,true,5858,2,2_1_2_0,word_2_word_1_word_3,different,cheese,Italian_Speech,adult,katy,,,,,,,,,male
tPVsB,9,14,mal_plain,fem_sws,2,cheese,door,shoes,shoes,cheese,door,mal_plain_fem_sws,critical,2/26/2017,15:38,right,true,5835,1,2_1_2_0,word_2_word_1_word_3,different,door,Italian_Speech,adult,katy,,,,,,,,,male
tPVsB,9,14,mal_plain,fem_sws,3,cheese,door,shoes,shoes,cheese,door,mal_plain_fem_sws,critical,2/26/2017,15:38,top_img,true,15864,1,2_1_2_0,word_2_word_1_word_3,different,shoes,Italian_Speech,adult,katy,,,,,,,,,male
tPVsB,10,17,mal_plain,fem_sws,1,cake,ambulance,ambulance,hand,cake,ambulance,mal_plain_fem_sws,critical,2/26/2017,15:38,left,true,4511,3,2_1_1_1,word_3_word_1_word_2,near,cake,Italian_Speech,adult,katy,,,,,,,,,male
tPVsB,10,17,mal_plain,fem_sws,2,cake,ambulance,ambulance,hand,cake,ambulance,mal_plain_fem_sws,critical,2/26/2017,15:38,right,true,3579,1,2_1_1_1,word_3_word_1_word_2,near,ambulance,Italian_Speech,adult,katy,,,,,,,,,male
tPVsB,10,17,mal_plain,fem_sws,3,cake,ambulance,ambulance,hand,cake,ambulance,mal_plain_fem_sws,critical,2/26/2017,15:38,right,true,2932,1,2_1_1_1,word_3_word_1_word_2,near,ambulance,Italian_Speech,adult,katy,,,,,,,,,male
tPVsB,11,5,mal_plain,fem_sws,1,mouth,orange,car,car,mouth,orange,mal_plain_fem_sws,critical,2/26/2017,15:38,left,true,5625,2,1_2_2_0,word_2_word_3_word_1,different,mouth,Italian_Speech,adult,katy,,,,,,,,,male
tPVsB,11,5,mal_plain,fem_sws,2,mouth,orange,car,car,mouth,orange,mal_plain_fem_sws,critical,2/26/2017,15:38,right,true,4081,2,1_2_2_0,word_2_word_3_word_1,different,orange,Italian_Speech,adult,katy,,,,,,,,,male
tPVsB,11,5,mal_plain,fem_sws,3,mouth,orange,car,car,mouth,orange,mal_plain_fem_sws,critical,2/26/2017,15:38,top_img,true,3663,1,1_2_2_0,word_2_word_3_word_1,different,car,Italian_Speech,adult,katy,,,,,,,,,male
tPVsB,12,1,mal_plain,fem_sws,1,baby,train,spoon,baby,train,spoon,mal_plain_fem_sws,critical,2/26/2017,15:38,top_img,true,2899,2,2_1_1_0,word_2_word_3_word_1,different,baby,Italian_Speech,adult,katy,,,,,,,,,male
tPVsB,12,1,mal_plain,fem_sws,2,baby,train,spoon,baby,train,spoon,mal_plain_fem_sws,critical,2/26/2017,15:38,left,true,3395,1,2_1_1_0,word_2_word_3_word_1,different,train,Italian_Speech,adult,katy,,,,,,,,,male
tPVsB,12,1,mal_plain,fem_sws,3,baby,train,spoon,baby,train,spoon,mal_plain_fem_sws,critical,2/26/2017,15:38,right,true,3474,1,2_1_1_0,word_2_word_3_word_1,different,spoon,Italian_Speech,adult,katy,,,,,,,,,male
tPVsB,13,20,mal_plain,fem_sws,1,apple,jumper,rabbit,rabbit,jumper,apple,mal_plain_fem_sws,critical,2/26/2017,15:38,left,false,7618,1,2_1_1_0,word_2_word_1_word_3,different,jumper,Italian_Speech,adult,katy,,,,,,,,,male
tPVsB,13,20,mal_plain,fem_sws,2,apple,jumper,rabbit,rabbit,jumper,apple,mal_plain_fem_sws,critical,2/26/2017,15:38,top_img,false,3904,1,2_1_1_0,word_2_word_1_word_3,different,rabbit,Italian_Speech,adult,katy,,,,,,,,,male
tPVsB,13,20,mal_plain,fem_sws,3,apple,jumper,rabbit,rabbit,jumper,apple,mal_plain_fem_sws,critical,2/26/2017,15:38,top_img,true,3607,1,2_1_1_0,word_2_word_1_word_3,different,rabbit,Italian_Speech,adult,katy,,,,,,,,,male
tPVsB,14,19,mal_plain,fem_sws,1,tree,building_blocks,tree,building_blocks,tree,santa,mal_plain_fem_sws,critical,2/26/2017,15:38,left,true,4270,2,1_2_1_1,word_2_word_3_word_1,far,tree,Italian_Speech,adult,katy,,,,,,,,,male
tPVsB,14,19,mal_plain,fem_sws,2,tree,building_blocks,tree,building_blocks,tree,santa,mal_plain_fem_sws,critical,2/26/2017,15:38,top_img,true,3084,1,1_2_1_1,word_2_word_3_word_1,far,building_blocks,Italian_Speech,adult,katy,,,,,,,,,male
tPVsB,14,19,mal_plain,fem_sws,3,tree,building_blocks,tree,building_blocks,tree,santa,mal_plain_fem_sws,critical,2/26/2017,15:38,top_img,false,3537,1,1_2_1_1,word_2_word_3_word_1,far,building_blocks,Italian_Speech,adult,katy,,,,,,,,,male
tPVsB,15,8,mal_plain,fem_sws,1,ear,wellboots,fire_engine,fire_engine,wellboots,ear,mal_plain_fem_sws,critical,2/26/2017,15:38,right,true,8728,1,1_2_2_0,word_2_word_1_word_3,different,ear,Italian_Speech,adult,katy,,,,,,,,,male
tPVsB,15,8,mal_plain,fem_sws,2,ear,wellboots,fire_engine,fire_engine,wellboots,ear,mal_plain_fem_sws,critical,2/26/2017,15:38,left,true,8089,1,1_2_2_0,word_2_word_1_word_3,different,wellboots,Italian_Speech,adult,katy,,,,,,,,,male
tPVsB,15,8,mal_plain,fem_sws,3,ear,wellboots,fire_engine,fire_engine,wellboots,ear,mal_plain_fem_sws,critical,2/26/2017,15:38,top_img,true,4763,1,1_2_2_0,word_2_word_1_word_3,different,fire_engine,Italian_Speech,adult,katy,,,,,,,,,male
tPVsB,16,11,mal_plain,fem_sws,1,cow,lorry,cow,cow,lorry,book,mal_plain_fem_sws,critical,2/26/2017,15:38,top_img,true,7088,1,1_2_1_1,word_3_word_2_word_1,far,cow,Italian_Speech,adult,katy,,,,,,,,,male
tPVsB,16,11,mal_plain,fem_sws,2,cow,lorry,cow,cow,lorry,book,mal_plain_fem_sws,critical,2/26/2017,15:38,top_img,false,8274,1,1_2_1_1,word_3_word_2_word_1,far,cow,Italian_Speech,adult,katy,,,,,,,,,male
tPVsB,16,11,mal_plain,fem_sws,3,cow,lorry,cow,cow,lorry,book,mal_plain_fem_sws,critical,2/26/2017,15:38,top_img,true,6503,1,1_2_1_1,word_3_word_2_word_1,far,cow,Italian_Speech,adult,katy,,,,,,,,,male
tPVsB,17,4,mal_plain,fem_sws,1,coat,strawberry,strawberry,coat,strawberry,flower,mal_plain_fem_sws,critical,2/26/2017,15:38,top_img,true,5533,1,1_2_2_1,word_1_word_2_word_3,near,coat,Italian_Speech,adult,katy,,,,,,,,,male
tPVsB,17,4,mal_plain,fem_sws,2,coat,strawberry,strawberry,coat,strawberry,flower,mal_plain_fem_sws,critical,2/26/2017,15:38,right,false,3338,1,1_2_2_1,word_1_word_2_word_3,near,flower,Italian_Speech,adult,katy,,,,,,,,,male
tPVsB,17,4,mal_plain,fem_sws,3,coat,strawberry,strawberry,coat,strawberry,flower,mal_plain_fem_sws,critical,2/26/2017,15:38,left,true,3116,1,1_2_2_1,word_1_word_2_word_3,near,strawberry,Italian_Speech,adult,katy,,,,,,,,,male
tPVsB,18,13,mal_plain,fem_sws,1,toothbrush,airplane,bread,toothbrush,bread,airplane,mal_plain_fem_sws,critical,2/26/2017,15:38,top_img,true,5102,2,1_2_2_0,word_1_word_3_word_2,different,toothbrush,Italian_Speech,adult,katy,,,,,,,,,male
tPVsB,18,13,mal_plain,fem_sws,2,toothbrush,airplane,bread,toothbrush,bread,airplane,mal_plain_fem_sws,critical,2/26/2017,15:38,right,true,2727,1,1_2_2_0,word_1_word_3_word_2,different,airplane,Italian_Speech,adult,katy,,,,,,,,,male
tPVsB,18,13,mal_plain,fem_sws,3,toothbrush,airplane,bread,toothbrush,bread,airplane,mal_plain_fem_sws,critical,2/26/2017,15:38,left,true,4670,1,1_2_2_0,word_1_word_3_word_2,different,bread,Italian_Speech,adult,katy,,,,,,,,,male
tPVsB,19,2,mal_plain,fem_sws,1,fork,chicken,chicken,fork,bed,chicken,mal_plain_fem_sws,critical,2/26/2017,15:38,top_img,true,3112,1,1_2_2_1,word_3_word_1_word_2,near,fork,Italian_Speech,adult,katy,,,,,,,,,male
tPVsB,19,2,mal_plain,fem_sws,2,fork,chicken,chicken,fork,bed,chicken,mal_plain_fem_sws,critical,2/26/2017,15:38,left,false,5232,1,1_2_2_1,word_3_word_1_word_2,near,bed,Italian_Speech,adult,katy,,,,,,,,,male
tPVsB,19,2,mal_plain,fem_sws,3,fork,chicken,chicken,fork,bed,chicken,mal_plain_fem_sws,critical,2/26/2017,15:38,right,true,3730,1,1_2_2_1,word_3_word_1_word_2,near,chicken,Italian_Speech,adult,katy,,,,,,,,,male
tPVsB,20,24,mal_plain,fem_sws,1,fish,sink,socks,sink,socks,fish,mal_plain_fem_sws,critical,2/26/2017,15:38,right,true,3862,1,2_1_2_0,word_1_word_3_word_2,different,fish,Italian_Speech,adult,katy,,,,,,,,,male
tPVsB,20,24,mal_plain,fem_sws,2,fish,sink,socks,sink,socks,fish,mal_plain_fem_sws,critical,2/26/2017,15:38,top_img,true,9018,1,2_1_2_0,word_1_word_3_word_2,different,sink,Italian_Speech,adult,katy,,,,,,,,,male
tPVsB,20,24,mal_plain,fem_sws,3,fish,sink,socks,sink,socks,fish,mal_plain_fem_sws,critical,2/26/2017,15:38,right,false,4423,2,2_1_2_0,word_1_word_3_word_2,different,fish,Italian_Speech,adult,katy,,,,,,,,,male
tPVsB,21,7,mal_plain,fem_sws,1,horse,lolly,cat,lolly,cat,horse,mal_plain_fem_sws,critical,2/26/2017,15:38,right,true,11242,1,2_1_2_0,word_1_word_3_word_2,different,horse,Italian_Speech,adult,katy,,,,,,,,,male
tPVsB,21,7,mal_plain,fem_sws,2,horse,lolly,cat,lolly,cat,horse,mal_plain_fem_sws,critical,2/26/2017,15:38,top_img,true,6922,1,2_1_2_0,word_1_word_3_word_2,different,lolly,Italian_Speech,adult,katy,,,,,,,,,male
tPVsB,21,7,mal_plain,fem_sws,3,horse,lolly,cat,lolly,cat,horse,mal_plain_fem_sws,critical,2/26/2017,15:38,left,true,4093,2,2_1_2_0,word_1_word_3_word_2,different,cat,Italian_Speech,adult,katy,,,,,,,,,male
tPVsB,22,23,mal_plain,fem_sws,1,table,teddy_bear,teddy_bear,teddy_bear,bath,table,mal_plain_fem_sws,critical,2/26/2017,15:38,right,true,3869,1,2_1_1_1,word_2_word_1_word_3,near,table,Italian_Speech,adult,katy,,,,,,,,,male
tPVsB,22,23,mal_plain,fem_sws,2,table,teddy_bear,teddy_bear,teddy_bear,bath,table,mal_plain_fem_sws,critical,2/26/2017,15:38,left,false,5284,1,2_1_1_1,word_2_word_1_word_3,near,bath,Italian_Speech,adult,katy,,,,,,,,,male
tPVsB,22,23,mal_plain,fem_sws,3,table,teddy_bear,teddy_bear,teddy_bear,bath,table,mal_plain_fem_sws,critical,2/26/2017,15:38,left,false,3513,1,2_1_1_1,word_2_word_1_word_3,near,bath,Italian_Speech,adult,katy,,,,,,,,,male
tPVsB,23,3,mal_plain,fem_sws,1,nose,trousers,nose,telephone,trousers,nose,mal_plain_fem_sws,critical,2/26/2017,15:38,right,true,5927,2,2_1_2_1,word_3_word_1_word_2,far,nose,Italian_Speech,adult,katy,,,,,,,,,male
tPVsB,23,3,mal_plain,fem_sws,2,nose,trousers,nose,telephone,trousers,nose,mal_plain_fem_sws,critical,2/26/2017,15:38,left,true,4192,1,2_1_2_1,word_3_word_1_word_2,far,trousers,Italian_Speech,adult,katy,,,,,,,,,male
tPVsB,23,3,mal_plain,fem_sws,3,nose,trousers,nose,telephone,trousers,nose,mal_plain_fem_sws,critical,2/26/2017,15:38,right,true,3711,1,2_1_2_1,word_3_word_1_word_2,far,nose,Italian_Speech,adult,katy,,,,,,,,,male
tPVsB,24,12,mal_plain,fem_sws,1,foot,yoghurt,yoghurt,foot,gloves,yoghurt,mal_plain_fem_sws,critical,2/26/2017,15:38,right,false,14395,1,1_2_2_1,word_1_word_3_word_2,near,yoghurt,Italian_Speech,adult,katy,,,,,,,,,male
tPVsB,24,12,mal_plain,fem_sws,2,foot,yoghurt,yoghurt,foot,gloves,yoghurt,mal_plain_fem_sws,critical,2/26/2017,15:38,right,true,3243,1,1_2_2_1,word_1_word_3_word_2,near,yoghurt,Italian_Speech,adult,katy,,,,,,,,,male
tPVsB,24,12,mal_plain,fem_sws,3,foot,yoghurt,yoghurt,foot,gloves,yoghurt,mal_plain_fem_sws,critical,2/26/2017,15:38,right,true,2942,1,1_2_2_1,word_1_word_3_word_2,near,yoghurt,Italian_Speech,adult,katy,,,,,,,,,male
tPVsB,25,18,mal_plain,fem_sws,1,raspberry,ball,raspberry,camera,ball,raspberry,mal_plain_fem_sws,critical,2/26/2017,15:38,top_img,false,5686,1,1_2_1_1,word_3_word_1_word_2,far,camera,Italian_Speech,adult,katy,,,,,,,,,male
tPVsB,25,18,mal_plain,fem_sws,2,raspberry,ball,raspberry,camera,ball,raspberry,mal_plain_fem_sws,critical,2/26/2017,15:38,left,true,7278,1,1_2_1_1,word_3_word_1_word_2,far,ball,Italian_Speech,adult,katy,,,,,,,,,male
tPVsB,25,18,mal_plain,fem_sws,3,raspberry,ball,raspberry,camera,ball,raspberry,mal_plain_fem_sws,critical,2/26/2017,15:38,right,true,4994,1,1_2_1_1,word_3_word_1_word_2,far,raspberry,Italian_Speech,adult,katy,,,,,,,,,male
