subject_id,trial_number,trial_id,target_sentence,foil_sentence,target_side,foil_side,trial_type,presentation_order,date_stamp,time_stamp,side_chosen,accuracy,rt,times_played,date_of_birth,ethnicity,native_lang,other_langs,parental_occ,dev_info,birth_order,num_siblings,gender
BmT7BErGMOXys2BZxYVGxcIRu,1,c,the_mouse_loves_cheese,the_cat_is_sleeping,right,left,training,1,9/20/2016,17:05,right,1,1607.999999999999,1,2011-06-16,,,,,,,,male
BmT7BErGMOXys2BZxYVGxcIRu,2,b,the_frog_is_jumping,the_mouse_loves_cheese,left,right,training,0,9/20/2016,17:05,left,1,1674.999999999999,1,2011-06-16,,,,,,,,male
BmT7BErGMOXys2BZxYVGxcIRu,3,a,the_cat_is_sleeping,the_frog_is_jumping,right,left,training,1,9/20/2016,17:05,right,1,969.9999999999991,1,2011-06-16,,,,,,,,male
BmT7BErGMOXys2BZxYVGxcIRu,4,5,the_turtle_lives_in_the_sea,we_had_pasta_for_dinner,left,right,critical,0,9/20/2016,17:05,left,1,8941,1,2011-06-16,,,,,,,,male
BmT7BErGMOXys2BZxYVGxcIRu,5,24,the_monkey_is_up_in_the_tree,the_ladybirds_are_very_red,right,left,critical,0,9/20/2016,17:05,right,1,2960.999999999999,1,2011-06-16,,,,,,,,male
BmT7BErGMOXys2BZxYVGxcIRu,6,17,we_took_some_sandwiches,he_dropped_the_cheeseburger,right,left,critical,0,9/20/2016,17:05,right,1,1526.999999999999,1,2011-06-16,,,,,,,,male
BmT7BErGMOXys2BZxYVGxcIRu,7,18,the_birds_are_flying,the_dog_is_barking,left,right,critical,0,9/20/2016,17:05,left,1,928.9999999999991,1,2011-06-16,,,,,,,,male
BmT7BErGMOXys2BZxYVGxcIRu,8,23,the_fish_are_in_the_river,he_is_peeling_a_banana,left,right,critical,1,9/20/2016,17:05,left,1,944.9999999999991,1,2011-06-16,,,,,,,,male
BmT7BErGMOXys2BZxYVGxcIRu,9,12,the_pizza_was_too_hot,the_dolphins_are_swimming,right,left,critical,1,9/20/2016,17:05,right,1,1522.999999999999,1,2011-06-16,,,,,,,,male
BmT7BErGMOXys2BZxYVGxcIRu,10,10,the_chickens_lay_eggs,he_finished_all_the_chocolates,left,right,critical,1,9/20/2016,17:05,left,1,1323.999999999999,1,2011-06-16,,,,,,,,male
BmT7BErGMOXys2BZxYVGxcIRu,11,16,she_grew_lots_of_tomatoes,the_turtle_lives_in_the_sea,left,right,critical,0,9/20/2016,17:05,left,1,1936.999999999999,1,2011-06-16,,,,,,,,male
BmT7BErGMOXys2BZxYVGxcIRu,12,6,the_bee_is_on_the_flower,the_birds_are_flying,right,left,critical,1,9/20/2016,17:05,right,1,428.9999999999991,1,2011-06-16,,,,,,,,male
BmT7BErGMOXys2BZxYVGxcIRu,13,22,she_bought_a_cake,he_made_a_salad,left,right,critical,0,9/20/2016,17:05,left,1,1149.999999999999,1,2011-06-16,,,,,,,,male
BmT7BErGMOXys2BZxYVGxcIRu,14,19,he_made_a_salad,we_took_some_sandwiches,right,left,critical,1,9/20/2016,17:05,right,1,1031.999999999999,1,2011-06-16,,,,,,,,male
BmT7BErGMOXys2BZxYVGxcIRu,15,3,the_horses_are_in_the_field,the_fish_are_in_the_river,left,right,critical,0,9/20/2016,17:05,left,1,1634.999999999999,1,2011-06-16,,,,,,,,male
BmT7BErGMOXys2BZxYVGxcIRu,16,4,we_had_pasta_for_dinner,she_likes_eating_carrots,left,right,critical,1,9/20/2016,17:05,left,1,1407.999999999999,1,2011-06-16,,,,,,,,male
BmT7BErGMOXys2BZxYVGxcIRu,17,15,he_dropped_the_cheeseburger,the_bee_is_on_the_flower,right,left,critical,1,9/20/2016,17:05,right,1,56.99999999999909,1,2011-06-16,,,,,,,,male
BmT7BErGMOXys2BZxYVGxcIRu,18,9,the_elephant_is_very_big,the_monkey_is_up_in_the_tree,right,left,critical,0,9/20/2016,17:05,right,1,2001.999999999999,1,2011-06-16,,,,,,,,male
BmT7BErGMOXys2BZxYVGxcIRu,19,2,she_has_cereal_for_breakfast,she_grew_lots_of_tomatoes,right,left,critical,1,9/20/2016,17:05,right,1,1204.999999999999,1,2011-06-16,,,,,,,,male
BmT7BErGMOXys2BZxYVGxcIRu,20,14,he_finished_all_the_chocolates,she_has_cereal_for_breakfast,right,left,critical,1,9/20/2016,17:05,right,1,1322.999999999999,1,2011-06-16,,,,,,,,male
BmT7BErGMOXys2BZxYVGxcIRu,21,1,the_dolphins_are_swimming,the_horses_are_in_the_field,left,right,critical,0,9/20/2016,17:05,left,1,799.9999999999991,1,2011-06-16,,,,,,,,male
BmT7BErGMOXys2BZxYVGxcIRu,22,13,the_butterfly_is_pretty,the_pizza_was_too_hot,left,right,critical,0,9/20/2016,17:05,left,1,570.9999999999991,1,2011-06-16,,,,,,,,male
BmT7BErGMOXys2BZxYVGxcIRu,23,21,he_is_peeling_a_banana,the_butterfly_is_pretty,right,left,critical,0,9/20/2016,17:05,right,1,226.9999999999991,1,2011-06-16,,,,,,,,male
BmT7BErGMOXys2BZxYVGxcIRu,24,8,she_likes_eating_carrots,the_chickens_lay_eggs,left,right,critical,1,9/20/2016,17:05,left,1,1054.999999999999,1,2011-06-16,,,,,,,,male
BmT7BErGMOXys2BZxYVGxcIRu,25,7,the_ladybirds_are_very_red,the_elephant_is_very_big,right,left,critical,1,9/20/2016,17:05,right,1,2328.999999999999,1,2011-06-16,,,,,,,,male
BmT7BErGMOXys2BZxYVGxcIRu,26,20,the_cheese_is_tasty,she_bought_a_cake,right,left,critical,1,9/20/2016,17:05,right,1,1024.999999999999,1,2011-06-16,,,,,,,,male
BmT7BErGMOXys2BZxYVGxcIRu,27,11,the_dog_is_barking,the_cheese_is_tasty,left,right,critical,0,9/20/2016,17:05,left,1,60.99999999999909,1,2011-06-16,,,,,,,,male
