subject_id,trial_number,trial_id,target_sentence,foil_sentence,target_side,foil_side,trial_type,presentation_order,date_stamp,time_stamp,side_chosen,accuracy,rt,times_played,date_of_birth,ethnicity,native_lang,other_langs,parental_occ,dev_info,birth_order,num_siblings,gender
Xnz1AyX3LzP9E5VjV3H79SDFa,1,c,the_mouse_loves_cheese,the_cat_is_sleeping,right,left,training,1,9/19/2016,14:23,right,1,1156.999999999999,1,2012-01-13,,,,,,1,1,female
Xnz1AyX3LzP9E5VjV3H79SDFa,2,b,the_frog_is_jumping,the_mouse_loves_cheese,left,right,training,0,9/19/2016,14:23,left,1,1670.999999999999,1,2012-01-13,,,,,,1,1,female
Xnz1AyX3LzP9E5VjV3H79SDFa,3,a,the_cat_is_sleeping,the_frog_is_jumping,right,left,training,1,9/19/2016,14:23,right,1,975.9999999999991,1,2012-01-13,,,,,,1,1,female
Xnz1AyX3LzP9E5VjV3H79SDFa,4,23,the_fish_are_in_the_river,he_is_peeling_a_banana,left,right,critical,0,9/19/2016,14:23,left,1,1765.999999999999,2,2012-01-13,,,,,,1,1,female
Xnz1AyX3LzP9E5VjV3H79SDFa,5,11,the_dog_is_barking,the_cheese_is_tasty,left,right,critical,1,9/19/2016,14:23,right,0,382.9999999999991,1,2012-01-13,,,,,,1,1,female
Xnz1AyX3LzP9E5VjV3H79SDFa,6,5,the_turtle_lives_in_the_sea,we_had_pasta_for_dinner,left,right,critical,0,9/19/2016,14:23,left,1,1408.999999999999,1,2012-01-13,,,,,,1,1,female
Xnz1AyX3LzP9E5VjV3H79SDFa,7,2,she_has_cereal_for_breakfast,she_grew_lots_of_tomatoes,left,right,critical,0,9/19/2016,14:23,left,1,6475.999999999999,1,2012-01-13,,,,,,1,1,female
Xnz1AyX3LzP9E5VjV3H79SDFa,8,8,she_likes_eating_carrots,the_chickens_lay_eggs,left,right,critical,1,9/19/2016,14:23,right,0,862.9999999999991,1,2012-01-13,,,,,,1,1,female
Xnz1AyX3LzP9E5VjV3H79SDFa,9,3,the_horses_are_in_the_field,the_fish_are_in_the_river,left,right,critical,0,9/19/2016,14:23,left,1,1880.999999999999,1,2012-01-13,,,,,,1,1,female
Xnz1AyX3LzP9E5VjV3H79SDFa,10,7,the_ladybirds_are_very_red,the_elephant_is_very_big,left,right,critical,1,9/19/2016,14:23,left,1,2267.999999999999,1,2012-01-13,,,,,,1,1,female
Xnz1AyX3LzP9E5VjV3H79SDFa,11,20,the_cheese_is_tasty,she_bought_a_cake,right,left,critical,0,9/19/2016,14:23,right,1,156.9999999999991,1,2012-01-13,,,,,,1,1,female
Xnz1AyX3LzP9E5VjV3H79SDFa,12,4,we_had_pasta_for_dinner,she_likes_eating_carrots,right,left,critical,0,9/19/2016,14:23,right,1,1731.999999999999,1,2012-01-13,,,,,,1,1,female
Xnz1AyX3LzP9E5VjV3H79SDFa,13,19,he_made_a_salad,we_took_some_sandwiches,right,left,critical,1,9/19/2016,14:23,left,0,301.9999999999991,1,2012-01-13,,,,,,1,1,female
Xnz1AyX3LzP9E5VjV3H79SDFa,14,13,the_butterfly_is_pretty,the_pizza_was_too_hot,right,left,critical,1,9/19/2016,14:23,right,1,1028.999999999999,1,2012-01-13,,,,,,1,1,female
Xnz1AyX3LzP9E5VjV3H79SDFa,15,12,the_pizza_was_too_hot,the_dolphins_are_swimming,right,left,critical,0,9/19/2016,14:23,left,0,1194.999999999999,1,2012-01-13,,,,,,1,1,female
Xnz1AyX3LzP9E5VjV3H79SDFa,16,22,she_bought_a_cake,he_made_a_salad,left,right,critical,1,9/19/2016,14:23,right,0,86.99999999999909,1,2012-01-13,,,,,,1,1,female
Xnz1AyX3LzP9E5VjV3H79SDFa,17,16,she_grew_lots_of_tomatoes,the_turtle_lives_in_the_sea,left,right,critical,0,9/19/2016,14:23,left,1,2455.999999999999,1,2012-01-13,,,,,,1,1,female
Xnz1AyX3LzP9E5VjV3H79SDFa,18,14,he_finished_all_the_chocolates,she_has_cereal_for_breakfast,left,right,critical,1,9/19/2016,14:23,left,1,1494.999999999999,1,2012-01-13,,,,,,1,1,female
Xnz1AyX3LzP9E5VjV3H79SDFa,19,6,the_bee_is_on_the_flower,the_birds_are_flying,left,right,critical,1,9/19/2016,14:23,left,1,694.9999999999991,1,2012-01-13,,,,,,1,1,female
Xnz1AyX3LzP9E5VjV3H79SDFa,20,24,the_monkey_is_up_in_the_tree,the_ladybirds_are_very_red,right,left,critical,0,9/19/2016,14:23,right,1,1761.999999999999,1,2012-01-13,,,,,,1,1,female
Xnz1AyX3LzP9E5VjV3H79SDFa,21,17,we_took_some_sandwiches,he_dropped_the_cheeseburger,right,left,critical,1,9/19/2016,14:23,right,1,976.9999999999991,1,2012-01-13,,,,,,1,1,female
Xnz1AyX3LzP9E5VjV3H79SDFa,22,21,he_is_peeling_a_banana,the_butterfly_is_pretty,left,right,critical,1,9/19/2016,14:23,left,1,1558.999999999999,1,2012-01-13,,,,,,1,1,female
Xnz1AyX3LzP9E5VjV3H79SDFa,23,18,the_birds_are_flying,the_dog_is_barking,right,left,critical,1,9/19/2016,14:23,right,1,-9.094947017729282e-13,1,2012-01-13,,,,,,1,1,female
Xnz1AyX3LzP9E5VjV3H79SDFa,24,9,the_elephant_is_very_big,the_monkey_is_up_in_the_tree,right,left,critical,0,9/19/2016,14:23,right,1,1643.999999999999,1,2012-01-13,,,,,,1,1,female
Xnz1AyX3LzP9E5VjV3H79SDFa,25,15,he_dropped_the_cheeseburger,the_bee_is_on_the_flower,right,left,critical,1,9/19/2016,14:23,right,1,573.9999999999991,1,2012-01-13,,,,,,1,1,female
Xnz1AyX3LzP9E5VjV3H79SDFa,26,10,the_chickens_lay_eggs,he_finished_all_the_chocolates,right,left,critical,0,9/19/2016,14:23,right,1,853.9999999999991,1,2012-01-13,,,,,,1,1,female
Xnz1AyX3LzP9E5VjV3H79SDFa,27,1,the_dolphins_are_swimming,the_horses_are_in_the_field,left,right,critical,0,9/19/2016,14:23,left,1,2279.999999999999,2,2012-01-13,,,,,,1,1,female
