subject_id,trial_number,trial_id,plain,sws,instruction_number,sound1_item,sound2_item,sound3_item,top_image,left_image,right_image,sound_gender,trial_type,date_stamp,time_stamp,side_chosen,accuracy,rt,play_counter,order,pic_position,distance,chosen_pic,test_lang,testing_loc,tester,date_of_birth,ethnicity,native_lang,other_langs,parental_occ,dev_info,birth_order,num_siblings,gender
83NdR,1,0,fem_plain,fem_sws,1,tractor,fireman,fireman,tractor,fireman,glasses,fem_plain_fem_sws,training,2/1/2017,11:07,top_img,true,5120,14,2_1_1_1,word_3_word_1_word_2,near,tractor,English_Speech,preschool,megan,,,,,,,,,male
83NdR,1,0,fem_plain,fem_sws,2,tractor,fireman,fireman,tractor,fireman,glasses,fem_plain_fem_sws,training,2/1/2017,11:07,left,true,2764,2,2_1_1_1,word_3_word_1_word_2,near,fireman,English_Speech,preschool,megan,,,,,,,,,male
83NdR,1,0,fem_plain,fem_sws,3,tractor,fireman,fireman,tractor,fireman,glasses,fem_plain_fem_sws,training,2/1/2017,11:07,left,true,274,4,2_1_1_1,word_3_word_1_word_2,near,fireman,English_Speech,preschool,megan,,,,,,,,,male
83NdR,2,1,fem_plain,fem_sws,1,spoon,train,train,baby,spoon,train,fem_plain_fem_sws,critical,2/1/2017,11:07,left,true,3286,2,1_2_2_1,word_2_word_1_word_3,near,spoon,English_Speech,preschool,megan,,,,,,,,,male
83NdR,2,1,fem_plain,fem_sws,2,spoon,train,train,baby,spoon,train,fem_plain_fem_sws,critical,2/1/2017,11:07,right,true,2829,2,1_2_2_1,word_2_word_1_word_3,near,train,English_Speech,preschool,megan,,,,,,,,,male
83NdR,2,1,fem_plain,fem_sws,3,spoon,train,train,baby,spoon,train,fem_plain_fem_sws,critical,2/1/2017,11:07,right,true,2618,5,1_2_2_1,word_2_word_1_word_3,near,train,English_Speech,preschool,megan,,,,,,,,,male
83NdR,3,11,fem_plain,fem_sws,1,cow,lorry,cow,lorry,book,cow,fem_plain_fem_sws,critical,2/1/2017,11:07,right,true,3601,2,1_2_1_1,word_2_word_1_word_3,far,cow,English_Speech,preschool,megan,,,,,,,,,male
83NdR,3,11,fem_plain,fem_sws,2,cow,lorry,cow,lorry,book,cow,fem_plain_fem_sws,critical,2/1/2017,11:07,top_img,true,3967,2,1_2_1_1,word_2_word_1_word_3,far,lorry,English_Speech,preschool,megan,,,,,,,,,male
83NdR,3,11,fem_plain,fem_sws,3,cow,lorry,cow,lorry,book,cow,fem_plain_fem_sws,critical,2/1/2017,11:07,right,true,2190,2,1_2_1_1,word_2_word_1_word_3,far,cow,English_Speech,preschool,megan,,,,,,,,,male
83NdR,4,9,fem_plain,fem_sws,1,grapes,window,pizza,pizza,grapes,window,fem_plain_fem_sws,critical,2/1/2017,11:07,left,true,2727,1,2_1_2_0,word_1_word_3_word_2,different,grapes,English_Speech,preschool,megan,,,,,,,,,male
83NdR,4,9,fem_plain,fem_sws,2,grapes,window,pizza,pizza,grapes,window,fem_plain_fem_sws,critical,2/1/2017,11:07,right,true,2961,2,2_1_2_0,word_1_word_3_word_2,different,window,English_Speech,preschool,megan,,,,,,,,,male
83NdR,4,9,fem_plain,fem_sws,3,grapes,window,pizza,pizza,grapes,window,fem_plain_fem_sws,critical,2/1/2017,11:07,left,false,10711,5,2_1_2_0,word_1_word_3_word_2,different,grapes,English_Speech,preschool,megan,,,,,,,,,male
83NdR,5,4,fem_plain,fem_sws,1,flower,coat,strawberry,strawberry,flower,coat,fem_plain_fem_sws,critical,2/1/2017,11:07,left,true,3046,1,2_1_1_0,word_2_word_3_word_1,different,flower,English_Speech,preschool,megan,,,,,,,,,male
83NdR,5,4,fem_plain,fem_sws,2,flower,coat,strawberry,strawberry,flower,coat,fem_plain_fem_sws,critical,2/1/2017,11:07,right,true,2862,1,2_1_1_0,word_2_word_3_word_1,different,coat,English_Speech,preschool,megan,,,,,,,,,male
83NdR,5,4,fem_plain,fem_sws,3,flower,coat,strawberry,strawberry,flower,coat,fem_plain_fem_sws,critical,2/1/2017,11:07,right,false,7259,2,2_1_1_0,word_2_word_3_word_1,different,coat,English_Speech,preschool,megan,,,,,,,,,male
83NdR,6,23,fem_plain,fem_sws,1,teddy_bear,bath,table,bath,teddy_bear,table,fem_plain_fem_sws,critical,2/1/2017,11:07,left,true,2767,2,2_1_1_0,word_1_word_2_word_3,different,teddy_bear,English_Speech,preschool,megan,,,,,,,,,male
83NdR,6,23,fem_plain,fem_sws,2,teddy_bear,bath,table,bath,teddy_bear,table,fem_plain_fem_sws,critical,2/1/2017,11:07,top_img,true,3037,2,2_1_1_0,word_1_word_2_word_3,different,bath,English_Speech,preschool,megan,,,,,,,,,male
83NdR,6,23,fem_plain,fem_sws,3,teddy_bear,bath,table,bath,teddy_bear,table,fem_plain_fem_sws,critical,2/1/2017,11:07,right,true,3696,6,2_1_1_0,word_1_word_2_word_3,different,table,English_Speech,preschool,megan,,,,,,,,,male
83NdR,7,24,fem_plain,fem_sws,1,sink,fish,sink,sink,fish,socks,fem_plain_fem_sws,critical,2/1/2017,11:07,top_img,true,3890,2,2_1_2_1,word_1_word_2_word_3,far,sink,English_Speech,preschool,megan,,,,,,,,,male
83NdR,7,24,fem_plain,fem_sws,2,sink,fish,sink,sink,fish,socks,fem_plain_fem_sws,critical,2/1/2017,11:07,left,true,2348,2,2_1_2_1,word_1_word_2_word_3,far,fish,English_Speech,preschool,megan,,,,,,,,,male
83NdR,7,24,fem_plain,fem_sws,3,sink,fish,sink,sink,fish,socks,fem_plain_fem_sws,critical,2/1/2017,11:07,right,false,7153,2,2_1_2_1,word_1_word_2_word_3,far,socks,English_Speech,preschool,megan,,,,,,,,,male
83NdR,8,7,fem_plain,fem_sws,1,lolly,horse,lolly,horse,cat,lolly,fem_plain_fem_sws,critical,2/1/2017,11:07,right,true,4261,2,1_2_1_1,word_2_word_3_word_1,far,lolly,English_Speech,preschool,megan,,,,,,,,,male
83NdR,8,7,fem_plain,fem_sws,2,lolly,horse,lolly,horse,cat,lolly,fem_plain_fem_sws,critical,2/1/2017,11:07,top_img,true,3054,4,1_2_1_1,word_2_word_3_word_1,far,horse,English_Speech,preschool,megan,,,,,,,,,male
83NdR,8,7,fem_plain,fem_sws,3,lolly,horse,lolly,horse,cat,lolly,fem_plain_fem_sws,critical,2/1/2017,11:07,left,false,15559,1,1_2_1_1,word_2_word_3_word_1,far,cat,English_Speech,preschool,megan,,,,,,,,,male
83NdR,9,14,fem_plain,fem_sws,1,shoes,door,cheese,cheese,door,shoes,fem_plain_fem_sws,critical,2/1/2017,11:07,right,true,3983,2,2_1_1_0,word_1_word_3_word_2,different,shoes,English_Speech,preschool,megan,,,,,,,,,male
83NdR,9,14,fem_plain,fem_sws,2,shoes,door,cheese,cheese,door,shoes,fem_plain_fem_sws,critical,2/1/2017,11:07,left,true,2891,2,2_1_1_0,word_1_word_3_word_2,different,door,English_Speech,preschool,megan,,,,,,,,,male
83NdR,9,14,fem_plain,fem_sws,3,shoes,door,cheese,cheese,door,shoes,fem_plain_fem_sws,critical,2/1/2017,11:07,right,false,7048,2,2_1_1_0,word_1_word_3_word_2,different,shoes,English_Speech,preschool,megan,,,,,,,,,male
83NdR,10,12,fem_plain,fem_sws,1,foot,gloves,foot,foot,gloves,yoghurt,fem_plain_fem_sws,critical,2/1/2017,11:07,top_img,true,2780,2,2_1_2_1,word_1_word_3_word_2,far,foot,English_Speech,preschool,megan,,,,,,,,,male
83NdR,10,12,fem_plain,fem_sws,2,foot,gloves,foot,foot,gloves,yoghurt,fem_plain_fem_sws,critical,2/1/2017,11:07,left,true,7087,2,2_1_2_1,word_1_word_3_word_2,far,gloves,English_Speech,preschool,megan,,,,,,,,,male
83NdR,10,12,fem_plain,fem_sws,3,foot,gloves,foot,foot,gloves,yoghurt,fem_plain_fem_sws,critical,2/1/2017,11:07,top_img,true,539,4,2_1_2_1,word_1_word_3_word_2,far,foot,English_Speech,preschool,megan,,,,,,,,,male
83NdR,11,16,fem_plain,fem_sws,1,chair,banana,paintbrush,chair,paintbrush,banana,fem_plain_fem_sws,critical,2/1/2017,11:07,top_img,true,3391,2,2_1_1_0,word_3_word_1_word_2,different,chair,English_Speech,preschool,megan,,,,,,,,,male
83NdR,11,16,fem_plain,fem_sws,2,chair,banana,paintbrush,chair,paintbrush,banana,fem_plain_fem_sws,critical,2/1/2017,11:07,right,true,2283,1,2_1_1_0,word_3_word_1_word_2,different,banana,English_Speech,preschool,megan,,,,,,,,,male
83NdR,11,16,fem_plain,fem_sws,3,chair,banana,paintbrush,chair,paintbrush,banana,fem_plain_fem_sws,critical,2/1/2017,11:07,right,false,10297,2,2_1_1_0,word_3_word_1_word_2,different,banana,English_Speech,preschool,megan,,,,,,,,,male
83NdR,12,22,fem_plain,fem_sws,1,bike,doctor,doctor,doctor,dog,bike,fem_plain_fem_sws,critical,2/1/2017,11:07,right,true,2899,2,1_2_2_1,word_3_word_2_word_1,near,bike,English_Speech,preschool,megan,,,,,,,,,male
83NdR,12,22,fem_plain,fem_sws,2,bike,doctor,doctor,doctor,dog,bike,fem_plain_fem_sws,critical,2/1/2017,11:07,top_img,true,2986,2,1_2_2_1,word_3_word_2_word_1,near,doctor,English_Speech,preschool,megan,,,,,,,,,male
83NdR,12,22,fem_plain,fem_sws,3,bike,doctor,doctor,doctor,dog,bike,fem_plain_fem_sws,critical,2/1/2017,11:07,right,false,2087,6,1_2_2_1,word_3_word_2_word_1,near,bike,English_Speech,preschool,megan,,,,,,,,,male
83NdR,13,20,fem_plain,fem_sws,1,jumper,apple,rabbit,apple,rabbit,jumper,fem_plain_fem_sws,critical,2/1/2017,11:07,right,true,2760,2,2_1_1_0,word_3_word_2_word_1,different,jumper,English_Speech,preschool,megan,,,,,,,,,male
83NdR,13,20,fem_plain,fem_sws,2,jumper,apple,rabbit,apple,rabbit,jumper,fem_plain_fem_sws,critical,2/1/2017,11:07,top_img,true,3884,3,2_1_1_0,word_3_word_2_word_1,different,apple,English_Speech,preschool,megan,,,,,,,,,male
83NdR,13,20,fem_plain,fem_sws,3,jumper,apple,rabbit,apple,rabbit,jumper,fem_plain_fem_sws,critical,2/1/2017,11:07,left,true,4026,2,2_1_1_0,word_3_word_2_word_1,different,rabbit,English_Speech,preschool,megan,,,,,,,,,male
83NdR,14,5,fem_plain,fem_sws,1,car,mouth,orange,car,orange,mouth,fem_plain_fem_sws,critical,2/1/2017,11:07,top_img,true,2676,2,1_2_2_0,word_2_word_1_word_3,different,car,English_Speech,preschool,megan,,,,,,,,,male
83NdR,14,5,fem_plain,fem_sws,2,car,mouth,orange,car,orange,mouth,fem_plain_fem_sws,critical,2/1/2017,11:07,right,true,3221,2,1_2_2_0,word_2_word_1_word_3,different,mouth,English_Speech,preschool,megan,,,,,,,,,male
83NdR,14,5,fem_plain,fem_sws,3,car,mouth,orange,car,orange,mouth,fem_plain_fem_sws,critical,2/1/2017,11:07,left,true,5695,2,1_2_2_0,word_2_word_1_word_3,different,orange,English_Speech,preschool,megan,,,,,,,,,male
83NdR,15,2,fem_plain,fem_sws,1,bed,chicken,fork,bed,fork,chicken,fem_plain_fem_sws,critical,2/1/2017,11:07,top_img,true,5575,2,2_1_1_0,word_1_word_3_word_2,different,bed,English_Speech,preschool,megan,,,,,,,,,male
83NdR,15,2,fem_plain,fem_sws,2,bed,chicken,fork,bed,fork,chicken,fem_plain_fem_sws,critical,2/1/2017,11:07,top_img,false,585,1,2_1_1_0,word_1_word_3_word_2,different,bed,English_Speech,preschool,megan,,,,,,,,,male
83NdR,15,2,fem_plain,fem_sws,3,bed,chicken,fork,bed,fork,chicken,fem_plain_fem_sws,critical,2/1/2017,11:07,right,false,490,1,2_1_1_0,word_1_word_3_word_2,different,chicken,English_Speech,preschool,megan,,,,,,,,,male
83NdR,16,3,fem_plain,fem_sws,1,nose,telephone,telephone,nose,trousers,telephone,fem_plain_fem_sws,critical,2/1/2017,11:07,top_img,true,2196,2,1_2_2_1,word_2_word_1_word_3,near,nose,English_Speech,preschool,megan,,,,,,,,,male
83NdR,16,3,fem_plain,fem_sws,2,nose,telephone,telephone,nose,trousers,telephone,fem_plain_fem_sws,critical,2/1/2017,11:07,right,true,3791,2,1_2_2_1,word_2_word_1_word_3,near,telephone,English_Speech,preschool,megan,,,,,,,,,male
83NdR,16,3,fem_plain,fem_sws,3,nose,telephone,telephone,nose,trousers,telephone,fem_plain_fem_sws,critical,2/1/2017,11:07,left,false,3259,2,1_2_2_1,word_2_word_1_word_3,near,trousers,English_Speech,preschool,megan,,,,,,,,,male
83NdR,17,8,fem_plain,fem_sws,1,fire_engine,wellyboots,ear,wellyboots,ear,fire_engine,fem_plain_fem_sws,critical,2/1/2017,11:07,right,true,3887,3,1_2_2_0,word_1_word_3_word_2,different,fire_engine,English_Speech,preschool,megan,,,,,,,,,male
83NdR,17,8,fem_plain,fem_sws,2,fire_engine,wellyboots,ear,wellyboots,ear,fire_engine,fem_plain_fem_sws,critical,2/1/2017,11:07,top_img,true,2955,1,1_2_2_0,word_1_word_3_word_2,different,wellyboots,English_Speech,preschool,megan,,,,,,,,,male
83NdR,17,8,fem_plain,fem_sws,3,fire_engine,wellyboots,ear,wellyboots,ear,fire_engine,fem_plain_fem_sws,critical,2/1/2017,11:07,left,true,5421,1,1_2_2_0,word_1_word_3_word_2,different,ear,English_Speech,preschool,megan,,,,,,,,,male
83NdR,18,18,fem_plain,fem_sws,1,ball,raspberry,raspberry,camera,ball,raspberry,fem_plain_fem_sws,critical,2/1/2017,11:07,left,true,4588,4,2_1_1_1,word_3_word_1_word_2,near,ball,English_Speech,preschool,megan,,,,,,,,,male
83NdR,18,18,fem_plain,fem_sws,2,ball,raspberry,raspberry,camera,ball,raspberry,fem_plain_fem_sws,critical,2/1/2017,11:07,top_img,false,990,6,2_1_1_1,word_3_word_1_word_2,near,camera,English_Speech,preschool,megan,,,,,,,,,male
83NdR,18,18,fem_plain,fem_sws,3,ball,raspberry,raspberry,camera,ball,raspberry,fem_plain_fem_sws,critical,2/1/2017,11:07,right,true,177,1,2_1_1_1,word_3_word_1_word_2,near,raspberry,English_Speech,preschool,megan,,,,,,,,,male
83NdR,19,10,fem_plain,fem_sws,1,tshirt,pig,pig,pig,tshirt,hat,fem_plain_fem_sws,critical,2/1/2017,11:07,top_img,false,1085,2,2_1_1_1,word_1_word_2_word_3,near,pig,English_Speech,preschool,megan,,,,,,,,,male
83NdR,19,10,fem_plain,fem_sws,2,tshirt,pig,pig,pig,tshirt,hat,fem_plain_fem_sws,critical,2/1/2017,11:07,left,false,144,1,2_1_1_1,word_1_word_2_word_3,near,tshirt,English_Speech,preschool,megan,,,,,,,,,male
83NdR,19,10,fem_plain,fem_sws,3,tshirt,pig,pig,pig,tshirt,hat,fem_plain_fem_sws,critical,2/1/2017,11:07,top_img,true,4128,2,2_1_1_1,word_1_word_2_word_3,near,pig,English_Speech,preschool,megan,,,,,,,,,male
83NdR,20,13,fem_plain,fem_sws,1,bread,airplane,bread,airplane,toothbrush,bread,fem_plain_fem_sws,critical,2/1/2017,11:07,right,true,3194,2,2_1_2_1,word_2_word_1_word_3,far,bread,English_Speech,preschool,megan,,,,,,,,,male
83NdR,20,13,fem_plain,fem_sws,2,bread,airplane,bread,airplane,toothbrush,bread,fem_plain_fem_sws,critical,2/1/2017,11:07,top_img,true,3692,2,2_1_2_1,word_2_word_1_word_3,far,airplane,English_Speech,preschool,megan,,,,,,,,,male
83NdR,20,13,fem_plain,fem_sws,3,bread,airplane,bread,airplane,toothbrush,bread,fem_plain_fem_sws,critical,2/1/2017,11:07,top_img,false,6698,2,2_1_2_1,word_2_word_1_word_3,far,airplane,English_Speech,preschool,megan,,,,,,,,,male
83NdR,21,15,fem_plain,fem_sws,1,slide,beans,slide,slide,pencil,beans,fem_plain_fem_sws,critical,2/1/2017,11:07,top_img,true,3153,2,1_2_1_1,word_1_word_2_word_3,far,slide,English_Speech,preschool,megan,,,,,,,,,male
83NdR,21,15,fem_plain,fem_sws,2,slide,beans,slide,slide,pencil,beans,fem_plain_fem_sws,critical,2/1/2017,11:07,right,true,1912,1,1_2_1_1,word_1_word_2_word_3,far,beans,English_Speech,preschool,megan,,,,,,,,,male
83NdR,21,15,fem_plain,fem_sws,3,slide,beans,slide,slide,pencil,beans,fem_plain_fem_sws,critical,2/1/2017,11:07,left,false,4716,2,1_2_1_1,word_1_word_2_word_3,far,pencil,English_Speech,preschool,megan,,,,,,,,,male
83NdR,22,21,fem_plain,fem_sws,1,frog,sheep,eye,frog,sheep,eye,fem_plain_fem_sws,critical,2/1/2017,11:07,top_img,true,6965,2,2_1_2_0,word_1_word_2_word_3,different,frog,English_Speech,preschool,megan,,,,,,,,,male
83NdR,22,21,fem_plain,fem_sws,2,frog,sheep,eye,frog,sheep,eye,fem_plain_fem_sws,critical,2/1/2017,11:07,left,true,2457,2,2_1_2_0,word_1_word_2_word_3,different,sheep,English_Speech,preschool,megan,,,,,,,,,male
83NdR,22,21,fem_plain,fem_sws,3,frog,sheep,eye,frog,sheep,eye,fem_plain_fem_sws,critical,2/1/2017,11:07,right,true,5493,2,2_1_2_0,word_1_word_2_word_3,different,eye,English_Speech,preschool,megan,,,,,,,,,male
83NdR,23,19,fem_plain,fem_sws,1,santa,building_blocks,tree,building_blocks,santa,tree,fem_plain_fem_sws,critical,2/1/2017,11:07,left,true,3304,2,2_1_2_0,word_2_word_1_word_3,different,santa,English_Speech,preschool,megan,,,,,,,,,male
83NdR,23,19,fem_plain,fem_sws,2,santa,building_blocks,tree,building_blocks,santa,tree,fem_plain_fem_sws,critical,2/1/2017,11:07,top_img,true,2533,2,2_1_2_0,word_2_word_1_word_3,different,building_blocks,English_Speech,preschool,megan,,,,,,,,,male
83NdR,23,19,fem_plain,fem_sws,3,santa,building_blocks,tree,building_blocks,santa,tree,fem_plain_fem_sws,critical,2/1/2017,11:07,right,true,13461,2,2_1_2_0,word_2_word_1_word_3,different,tree,English_Speech,preschool,megan,,,,,,,,,male
83NdR,24,17,fem_plain,fem_sws,1,hand,ambulance,cake,hand,cake,ambulance,fem_plain_fem_sws,critical,2/1/2017,11:07,top_img,true,7464,2,1_2_2_0,word_3_word_1_word_2,different,hand,English_Speech,preschool,megan,,,,,,,,,male
83NdR,24,17,fem_plain,fem_sws,2,hand,ambulance,cake,hand,cake,ambulance,fem_plain_fem_sws,critical,2/1/2017,11:07,right,true,2825,2,1_2_2_0,word_3_word_1_word_2,different,ambulance,English_Speech,preschool,megan,,,,,,,,,male
83NdR,24,17,fem_plain,fem_sws,3,hand,ambulance,cake,hand,cake,ambulance,fem_plain_fem_sws,critical,2/1/2017,11:07,left,true,4571,2,1_2_2_0,word_3_word_1_word_2,different,cake,English_Speech,preschool,megan,,,,,,,,,male
83NdR,25,6,fem_plain,fem_sws,1,bird,peas,bird,carrot,peas,bird,fem_plain_fem_sws,critical,2/1/2017,11:07,left,false,1417,2,1_2_1_1,word_3_word_2_word_1,far,peas,English_Speech,preschool,megan,,,,,,,,,male
83NdR,25,6,fem_plain,fem_sws,2,bird,peas,bird,carrot,peas,bird,fem_plain_fem_sws,critical,2/1/2017,11:07,right,false,90,2,1_2_1_1,word_3_word_2_word_1,far,bird,English_Speech,preschool,megan,,,,,,,,,male
83NdR,25,6,fem_plain,fem_sws,3,bird,peas,bird,carrot,peas,bird,fem_plain_fem_sws,critical,2/1/2017,11:07,top_img,false,3895,2,1_2_1_1,word_3_word_2_word_1,far,carrot,English_Speech,preschool,megan,,,,,,,,,male
