subject_id,trial_number,trial_id,plain,sws,instruction_number,sound1_item,sound2_item,sound3_item,top_image,left_image,right_image,sound_gender,trial_type,date_stamp,time_stamp,side_chosen,accuracy,rt,play_counter,order,pic_position,distance,chosen_pic,test_lang,testing_loc,tester,date_of_birth,ethnicity,native_lang,other_langs,parental_occ,dev_info,birth_order,num_siblings,gender
cfEzZ,1,0,mal_plain,mal_sws,1,tractor,fireman,glasses,fireman,glasses,tractor,mal_plain_mal_sws,training,1/5/2017,17:51,right,true,8944,2,2_1_2_0,word_1_word_2_word_3,different,tractor,English_Speech,home,katy,2012-07-24,,,,,,,,female
cfEzZ,1,0,mal_plain,mal_sws,2,tractor,fireman,glasses,fireman,glasses,tractor,mal_plain_mal_sws,training,1/5/2017,17:51,top_img,true,5551,4,2_1_2_0,word_1_word_2_word_3,different,fireman,English_Speech,home,katy,2012-07-24,,,,,,,,female
cfEzZ,1,0,mal_plain,mal_sws,3,tractor,fireman,glasses,fireman,glasses,tractor,mal_plain_mal_sws,training,1/5/2017,17:51,left,true,7617,4,2_1_2_0,word_1_word_2_word_3,different,glasses,English_Speech,home,katy,2012-07-24,,,,,,,,female
cfEzZ,2,5,mal_plain,mal_sws,1,orange,mouth,mouth,orange,mouth,car,mal_plain_mal_sws,critical,1/5/2017,17:51,top_img,true,10355,2,1_2_2_1,word_1_word_3_word_2,near,orange,English_Speech,home,katy,2012-07-24,,,,,,,,female
cfEzZ,2,5,mal_plain,mal_sws,2,orange,mouth,mouth,orange,mouth,car,mal_plain_mal_sws,critical,1/5/2017,17:51,left,true,4440,2,1_2_2_1,word_1_word_3_word_2,near,mouth,English_Speech,home,katy,2012-07-24,,,,,,,,female
cfEzZ,2,5,mal_plain,mal_sws,3,orange,mouth,mouth,orange,mouth,car,mal_plain_mal_sws,critical,1/5/2017,17:51,left,true,7030,2,1_2_2_1,word_1_word_3_word_2,near,mouth,English_Speech,home,katy,2012-07-24,,,,,,,,female
cfEzZ,3,4,mal_plain,mal_sws,1,flower,coat,strawberry,flower,coat,strawberry,mal_plain_mal_sws,critical,1/5/2017,17:51,top_img,true,5502,2,2_1_2_0,word_3_word_1_word_2,different,flower,English_Speech,home,katy,2012-07-24,,,,,,,,female
cfEzZ,3,4,mal_plain,mal_sws,2,flower,coat,strawberry,flower,coat,strawberry,mal_plain_mal_sws,critical,1/5/2017,17:51,left,true,4456,4,2_1_2_0,word_3_word_1_word_2,different,coat,English_Speech,home,katy,2012-07-24,,,,,,,,female
cfEzZ,3,4,mal_plain,mal_sws,3,flower,coat,strawberry,flower,coat,strawberry,mal_plain_mal_sws,critical,1/5/2017,17:51,top_img,false,5475,2,2_1_2_0,word_3_word_1_word_2,different,flower,English_Speech,home,katy,2012-07-24,,,,,,,,female
cfEzZ,4,14,mal_plain,mal_sws,1,shoes,door,cheese,door,cheese,shoes,mal_plain_mal_sws,critical,1/5/2017,17:51,right,true,7433,1,2_1_1_0,word_3_word_1_word_2,different,shoes,English_Speech,home,katy,2012-07-24,,,,,,,,female
cfEzZ,4,14,mal_plain,mal_sws,2,shoes,door,cheese,door,cheese,shoes,mal_plain_mal_sws,critical,1/5/2017,17:51,top_img,true,7602,3,2_1_1_0,word_3_word_1_word_2,different,door,English_Speech,home,katy,2012-07-24,,,,,,,,female
cfEzZ,4,14,mal_plain,mal_sws,3,shoes,door,cheese,door,cheese,shoes,mal_plain_mal_sws,critical,1/5/2017,17:51,right,false,6051,3,2_1_1_0,word_3_word_1_word_2,different,shoes,English_Speech,home,katy,2012-07-24,,,,,,,,female
cfEzZ,5,6,mal_plain,mal_sws,1,bird,peas,peas,peas,bird,carrot,mal_plain_mal_sws,critical,1/5/2017,17:51,left,true,5507,4,2_1_1_1,word_2_word_1_word_3,near,bird,English_Speech,home,katy,2012-07-24,,,,,,,,female
cfEzZ,5,6,mal_plain,mal_sws,2,bird,peas,peas,peas,bird,carrot,mal_plain_mal_sws,critical,1/5/2017,17:51,top_img,true,3773,2,2_1_1_1,word_2_word_1_word_3,near,peas,English_Speech,home,katy,2012-07-24,,,,,,,,female
cfEzZ,5,6,mal_plain,mal_sws,3,bird,peas,peas,peas,bird,carrot,mal_plain_mal_sws,critical,1/5/2017,17:51,top_img,true,20518,1,2_1_1_1,word_2_word_1_word_3,near,peas,English_Speech,home,katy,2012-07-24,,,,,,,,female
cfEzZ,6,10,mal_plain,mal_sws,1,pig,tshirt,pig,pig,hat,tshirt,mal_plain_mal_sws,critical,1/5/2017,17:51,top_img,true,5981,2,1_2_1_1,word_1_word_3_word_2,far,pig,English_Speech,home,katy,2012-07-24,,,,,,,,female
cfEzZ,6,10,mal_plain,mal_sws,2,pig,tshirt,pig,pig,hat,tshirt,mal_plain_mal_sws,critical,1/5/2017,17:51,right,true,10340,2,1_2_1_1,word_1_word_3_word_2,far,tshirt,English_Speech,home,katy,2012-07-24,,,,,,,,female
cfEzZ,6,10,mal_plain,mal_sws,3,pig,tshirt,pig,pig,hat,tshirt,mal_plain_mal_sws,critical,1/5/2017,17:51,top_img,true,10342,1,1_2_1_1,word_1_word_3_word_2,far,pig,English_Speech,home,katy,2012-07-24,,,,,,,,female
cfEzZ,7,23,mal_plain,mal_sws,1,teddy_bear,table,bath,teddy_bear,table,bath,mal_plain_mal_sws,critical,1/5/2017,17:51,top_img,true,5449,2,2_1_1_0,word_2_word_3_word_1,different,teddy_bear,English_Speech,home,katy,2012-07-24,,,,,,,,female
cfEzZ,7,23,mal_plain,mal_sws,2,teddy_bear,table,bath,teddy_bear,table,bath,mal_plain_mal_sws,critical,1/5/2017,17:51,top_img,false,5401,2,2_1_1_0,word_2_word_3_word_1,different,teddy_bear,English_Speech,home,katy,2012-07-24,,,,,,,,female
cfEzZ,7,23,mal_plain,mal_sws,3,teddy_bear,table,bath,teddy_bear,table,bath,mal_plain_mal_sws,critical,1/5/2017,17:51,right,true,5470,4,2_1_1_0,word_2_word_3_word_1,different,bath,English_Speech,home,katy,2012-07-24,,,,,,,,female
cfEzZ,8,12,mal_plain,mal_sws,1,gloves,foot,foot,yoghurt,gloves,foot,mal_plain_mal_sws,critical,1/5/2017,17:51,left,true,9653,1,2_1_1_1,word_2_word_3_word_1,near,gloves,English_Speech,home,katy,2012-07-24,,,,,,,,female
cfEzZ,8,12,mal_plain,mal_sws,2,gloves,foot,foot,yoghurt,gloves,foot,mal_plain_mal_sws,critical,1/5/2017,17:51,right,true,7880,2,2_1_1_1,word_2_word_3_word_1,near,foot,English_Speech,home,katy,2012-07-24,,,,,,,,female
cfEzZ,8,12,mal_plain,mal_sws,3,gloves,foot,foot,yoghurt,gloves,foot,mal_plain_mal_sws,critical,1/5/2017,17:51,right,true,6958,2,2_1_1_1,word_2_word_3_word_1,near,foot,English_Speech,home,katy,2012-07-24,,,,,,,,female
cfEzZ,9,19,mal_plain,mal_sws,1,tree,santa,building_blocks,building_blocks,santa,tree,mal_plain_mal_sws,critical,1/5/2017,17:51,right,true,12028,2,1_2_2_0,word_2_word_1_word_3,different,tree,English_Speech,home,katy,2012-07-24,,,,,,,,female
cfEzZ,9,19,mal_plain,mal_sws,2,tree,santa,building_blocks,building_blocks,santa,tree,mal_plain_mal_sws,critical,1/5/2017,17:51,left,true,5373,1,1_2_2_0,word_2_word_1_word_3,different,santa,English_Speech,home,katy,2012-07-24,,,,,,,,female
cfEzZ,9,19,mal_plain,mal_sws,3,tree,santa,building_blocks,building_blocks,santa,tree,mal_plain_mal_sws,critical,1/5/2017,17:51,left,false,16242,2,1_2_2_0,word_2_word_1_word_3,different,santa,English_Speech,home,katy,2012-07-24,,,,,,,,female
cfEzZ,10,1,mal_plain,mal_sws,1,spoon,train,spoon,baby,train,spoon,mal_plain_mal_sws,critical,1/5/2017,17:51,right,true,3581,2,1_2_1_1,word_2_word_3_word_1,far,spoon,English_Speech,home,katy,2012-07-24,,,,,,,,female
cfEzZ,10,1,mal_plain,mal_sws,2,spoon,train,spoon,baby,train,spoon,mal_plain_mal_sws,critical,1/5/2017,17:51,left,true,11595,1,1_2_1_1,word_2_word_3_word_1,far,train,English_Speech,home,katy,2012-07-24,,,,,,,,female
cfEzZ,10,1,mal_plain,mal_sws,3,spoon,train,spoon,baby,train,spoon,mal_plain_mal_sws,critical,1/5/2017,17:51,right,true,8633,2,1_2_1_1,word_2_word_3_word_1,far,spoon,English_Speech,home,katy,2012-07-24,,,,,,,,female
cfEzZ,11,9,mal_plain,mal_sws,1,grapes,window,grapes,window,grapes,pizza,mal_plain_mal_sws,critical,1/5/2017,17:51,left,true,7388,2,1_2_1_1,word_2_word_3_word_1,far,grapes,English_Speech,home,katy,2012-07-24,,,,,,,,female
cfEzZ,11,9,mal_plain,mal_sws,2,grapes,window,grapes,window,grapes,pizza,mal_plain_mal_sws,critical,1/5/2017,17:51,top_img,true,3123,2,1_2_1_1,word_2_word_3_word_1,far,window,English_Speech,home,katy,2012-07-24,,,,,,,,female
cfEzZ,11,9,mal_plain,mal_sws,3,grapes,window,grapes,window,grapes,pizza,mal_plain_mal_sws,critical,1/5/2017,17:51,right,false,10690,2,1_2_1_1,word_2_word_3_word_1,far,pizza,English_Speech,home,katy,2012-07-24,,,,,,,,female
cfEzZ,12,3,mal_plain,mal_sws,1,nose,trousers,telephone,telephone,nose,trousers,mal_plain_mal_sws,critical,1/5/2017,17:51,left,true,12058,2,2_1_1_0,word_3_word_2_word_1,different,nose,English_Speech,home,katy,2012-07-24,,,,,,,,female
cfEzZ,12,3,mal_plain,mal_sws,2,nose,trousers,telephone,telephone,nose,trousers,mal_plain_mal_sws,critical,1/5/2017,17:51,right,true,8359,2,2_1_1_0,word_3_word_2_word_1,different,trousers,English_Speech,home,katy,2012-07-24,,,,,,,,female
cfEzZ,12,3,mal_plain,mal_sws,3,nose,trousers,telephone,telephone,nose,trousers,mal_plain_mal_sws,critical,1/5/2017,17:51,right,false,11324,2,2_1_1_0,word_3_word_2_word_1,different,trousers,English_Speech,home,katy,2012-07-24,,,,,,,,female
cfEzZ,13,13,mal_plain,mal_sws,1,toothbrush,airplane,airplane,airplane,bread,toothbrush,mal_plain_mal_sws,critical,1/5/2017,17:51,right,true,7096,2,2_1_1_1,word_2_word_3_word_1,near,toothbrush,English_Speech,home,katy,2012-07-24,,,,,,,,female
cfEzZ,13,13,mal_plain,mal_sws,2,toothbrush,airplane,airplane,airplane,bread,toothbrush,mal_plain_mal_sws,critical,1/5/2017,17:51,top_img,true,4926,1,2_1_1_1,word_2_word_3_word_1,near,airplane,English_Speech,home,katy,2012-07-24,,,,,,,,female
cfEzZ,13,13,mal_plain,mal_sws,3,toothbrush,airplane,airplane,airplane,bread,toothbrush,mal_plain_mal_sws,critical,1/5/2017,17:51,top_img,true,9126,4,2_1_1_1,word_2_word_3_word_1,near,airplane,English_Speech,home,katy,2012-07-24,,,,,,,,female
cfEzZ,14,15,mal_plain,mal_sws,1,beans,slide,beans,slide,pencil,beans,mal_plain_mal_sws,critical,1/5/2017,17:51,right,true,4678,2,2_1_2_1,word_1_word_2_word_3,far,beans,English_Speech,home,katy,2012-07-24,,,,,,,,female
cfEzZ,14,15,mal_plain,mal_sws,2,beans,slide,beans,slide,pencil,beans,mal_plain_mal_sws,critical,1/5/2017,17:51,top_img,true,10978,2,2_1_2_1,word_1_word_2_word_3,far,slide,English_Speech,home,katy,2012-07-24,,,,,,,,female
cfEzZ,14,15,mal_plain,mal_sws,3,beans,slide,beans,slide,pencil,beans,mal_plain_mal_sws,critical,1/5/2017,17:51,right,true,7982,2,2_1_2_1,word_1_word_2_word_3,far,beans,English_Speech,home,katy,2012-07-24,,,,,,,,female
cfEzZ,15,16,mal_plain,mal_sws,1,paintbrush,banana,chair,chair,paintbrush,banana,mal_plain_mal_sws,critical,1/5/2017,17:51,left,true,9431,2,2_1_1_0,word_3_word_1_word_2,different,paintbrush,English_Speech,home,katy,2012-07-24,,,,,,,,female
cfEzZ,15,16,mal_plain,mal_sws,2,paintbrush,banana,chair,chair,paintbrush,banana,mal_plain_mal_sws,critical,1/5/2017,17:51,right,true,7961,2,2_1_1_0,word_3_word_1_word_2,different,banana,English_Speech,home,katy,2012-07-24,,,,,,,,female
cfEzZ,15,16,mal_plain,mal_sws,3,paintbrush,banana,chair,chair,paintbrush,banana,mal_plain_mal_sws,critical,1/5/2017,17:51,top_img,true,11313,2,2_1_1_0,word_3_word_1_word_2,different,chair,English_Speech,home,katy,2012-07-24,,,,,,,,female
cfEzZ,16,8,mal_plain,mal_sws,1,fire_engine,ear,wellyboots,fire_engine,ear,wellyboots,mal_plain_mal_sws,critical,1/5/2017,17:51,top_img,true,8310,2,1_2_2_0,word_2_word_3_word_1,different,fire_engine,English_Speech,home,katy,2012-07-24,,,,,,,,female
cfEzZ,16,8,mal_plain,mal_sws,2,fire_engine,ear,wellyboots,fire_engine,ear,wellyboots,mal_plain_mal_sws,critical,1/5/2017,17:51,left,true,4909,1,1_2_2_0,word_2_word_3_word_1,different,ear,English_Speech,home,katy,2012-07-24,,,,,,,,female
cfEzZ,16,8,mal_plain,mal_sws,3,fire_engine,ear,wellyboots,fire_engine,ear,wellyboots,mal_plain_mal_sws,critical,1/5/2017,17:51,right,true,14256,2,1_2_2_0,word_2_word_3_word_1,different,wellyboots,English_Speech,home,katy,2012-07-24,,,,,,,,female
cfEzZ,17,18,mal_plain,mal_sws,1,ball,raspberry,camera,ball,camera,raspberry,mal_plain_mal_sws,critical,1/5/2017,17:51,top_img,true,3945,2,2_1_1_0,word_1_word_3_word_2,different,ball,English_Speech,home,katy,2012-07-24,,,,,,,,female
cfEzZ,17,18,mal_plain,mal_sws,2,ball,raspberry,camera,ball,camera,raspberry,mal_plain_mal_sws,critical,1/5/2017,17:51,right,true,8961,2,2_1_1_0,word_1_word_3_word_2,different,raspberry,English_Speech,home,katy,2012-07-24,,,,,,,,female
cfEzZ,17,18,mal_plain,mal_sws,3,ball,raspberry,camera,ball,camera,raspberry,mal_plain_mal_sws,critical,1/5/2017,17:51,top_img,false,4051,2,2_1_1_0,word_1_word_3_word_2,different,ball,English_Speech,home,katy,2012-07-24,,,,,,,,female
cfEzZ,18,20,mal_plain,mal_sws,1,rabbit,jumper,apple,apple,jumper,rabbit,mal_plain_mal_sws,critical,1/5/2017,17:51,right,true,1774,2,1_2_2_0,word_3_word_1_word_2,different,rabbit,English_Speech,home,katy,2012-07-24,,,,,,,,female
cfEzZ,18,20,mal_plain,mal_sws,2,rabbit,jumper,apple,apple,jumper,rabbit,mal_plain_mal_sws,critical,1/5/2017,17:51,left,true,7344,2,1_2_2_0,word_3_word_1_word_2,different,jumper,English_Speech,home,katy,2012-07-24,,,,,,,,female
cfEzZ,18,20,mal_plain,mal_sws,3,rabbit,jumper,apple,apple,jumper,rabbit,mal_plain_mal_sws,critical,1/5/2017,17:51,top_img,true,11311,2,1_2_2_0,word_3_word_1_word_2,different,apple,English_Speech,home,katy,2012-07-24,,,,,,,,female
cfEzZ,19,11,mal_plain,mal_sws,1,cow,lorry,lorry,lorry,book,cow,mal_plain_mal_sws,critical,1/5/2017,17:51,right,true,4724,2,1_2_2_1,word_2_word_1_word_3,near,cow,English_Speech,home,katy,2012-07-24,,,,,,,,female
cfEzZ,19,11,mal_plain,mal_sws,2,cow,lorry,lorry,lorry,book,cow,mal_plain_mal_sws,critical,1/5/2017,17:51,top_img,true,4776,2,1_2_2_1,word_2_word_1_word_3,near,lorry,English_Speech,home,katy,2012-07-24,,,,,,,,female
cfEzZ,19,11,mal_plain,mal_sws,3,cow,lorry,lorry,lorry,book,cow,mal_plain_mal_sws,critical,1/5/2017,17:51,top_img,true,8989,4,1_2_2_1,word_2_word_1_word_3,near,lorry,English_Speech,home,katy,2012-07-24,,,,,,,,female
cfEzZ,20,7,mal_plain,mal_sws,1,lolly,horse,cat,cat,horse,lolly,mal_plain_mal_sws,critical,1/5/2017,17:51,right,true,6797,2,2_1_2_0,word_3_word_2_word_1,different,lolly,English_Speech,home,katy,2012-07-24,,,,,,,,female
cfEzZ,20,7,mal_plain,mal_sws,2,lolly,horse,cat,cat,horse,lolly,mal_plain_mal_sws,critical,1/5/2017,17:51,left,true,6593,4,2_1_2_0,word_3_word_2_word_1,different,horse,English_Speech,home,katy,2012-07-24,,,,,,,,female
cfEzZ,20,7,mal_plain,mal_sws,3,lolly,horse,cat,cat,horse,lolly,mal_plain_mal_sws,critical,1/5/2017,17:51,top_img,true,5162,4,2_1_2_0,word_3_word_2_word_1,different,cat,English_Speech,home,katy,2012-07-24,,,,,,,,female
cfEzZ,21,17,mal_plain,mal_sws,1,hand,ambulance,hand,cake,hand,ambulance,mal_plain_mal_sws,critical,1/5/2017,17:51,left,true,9165,2,2_1_2_1,word_1_word_3_word_2,far,hand,English_Speech,home,katy,2012-07-24,,,,,,,,female
cfEzZ,21,17,mal_plain,mal_sws,2,hand,ambulance,hand,cake,hand,ambulance,mal_plain_mal_sws,critical,1/5/2017,17:51,right,true,8340,2,2_1_2_1,word_1_word_3_word_2,far,ambulance,English_Speech,home,katy,2012-07-24,,,,,,,,female
cfEzZ,21,17,mal_plain,mal_sws,3,hand,ambulance,hand,cake,hand,ambulance,mal_plain_mal_sws,critical,1/5/2017,17:51,left,true,15182,1,2_1_2_1,word_1_word_3_word_2,far,hand,English_Speech,home,katy,2012-07-24,,,,,,,,female
cfEzZ,22,2,mal_plain,mal_sws,1,chicken,bed,chicken,fork,chicken,bed,mal_plain_mal_sws,critical,1/5/2017,17:51,left,true,12565,2,2_1_2_1,word_3_word_2_word_1,far,chicken,English_Speech,home,katy,2012-07-24,,,,,,,,female
cfEzZ,22,2,mal_plain,mal_sws,2,chicken,bed,chicken,fork,chicken,bed,mal_plain_mal_sws,critical,1/5/2017,17:51,right,true,9740,2,2_1_2_1,word_3_word_2_word_1,far,bed,English_Speech,home,katy,2012-07-24,,,,,,,,female
cfEzZ,22,2,mal_plain,mal_sws,3,chicken,bed,chicken,fork,chicken,bed,mal_plain_mal_sws,critical,1/5/2017,17:51,left,true,22169,2,2_1_2_1,word_3_word_2_word_1,far,chicken,English_Speech,home,katy,2012-07-24,,,,,,,,female
cfEzZ,23,24,mal_plain,mal_sws,1,socks,fish,sink,fish,socks,sink,mal_plain_mal_sws,critical,1/5/2017,17:51,left,true,11007,1,2_1_1_0,word_2_word_3_word_1,different,socks,English_Speech,home,katy,2012-07-24,,,,,,,,female
cfEzZ,23,24,mal_plain,mal_sws,2,socks,fish,sink,fish,socks,sink,mal_plain_mal_sws,critical,1/5/2017,17:51,top_img,true,11698,2,2_1_1_0,word_2_word_3_word_1,different,fish,English_Speech,home,katy,2012-07-24,,,,,,,,female
cfEzZ,23,24,mal_plain,mal_sws,3,socks,fish,sink,fish,socks,sink,mal_plain_mal_sws,critical,1/5/2017,17:51,right,true,13780,1,2_1_1_0,word_2_word_3_word_1,different,sink,English_Speech,home,katy,2012-07-24,,,,,,,,female
cfEzZ,24,21,mal_plain,mal_sws,1,frog,eye,eye,sheep,frog,eye,mal_plain_mal_sws,critical,1/5/2017,17:51,left,true,7583,2,1_2_2_1,word_2_word_1_word_3,near,frog,English_Speech,home,katy,2012-07-24,,,,,,,,female
cfEzZ,24,21,mal_plain,mal_sws,2,frog,eye,eye,sheep,frog,eye,mal_plain_mal_sws,critical,1/5/2017,17:51,right,true,6220,2,1_2_2_1,word_2_word_1_word_3,near,eye,English_Speech,home,katy,2012-07-24,,,,,,,,female
cfEzZ,24,21,mal_plain,mal_sws,3,frog,eye,eye,sheep,frog,eye,mal_plain_mal_sws,critical,1/5/2017,17:51,right,true,11604,4,1_2_2_1,word_2_word_1_word_3,near,eye,English_Speech,home,katy,2012-07-24,,,,,,,,female
cfEzZ,25,22,mal_plain,mal_sws,1,doctor,bike,doctor,doctor,dog,bike,mal_plain_mal_sws,critical,1/5/2017,17:51,top_img,true,11109,1,1_2_1_1,word_3_word_2_word_1,far,doctor,English_Speech,home,katy,2012-07-24,,,,,,,,female
cfEzZ,25,22,mal_plain,mal_sws,2,doctor,bike,doctor,doctor,dog,bike,mal_plain_mal_sws,critical,1/5/2017,17:51,right,true,5256,2,1_2_1_1,word_3_word_2_word_1,far,bike,English_Speech,home,katy,2012-07-24,,,,,,,,female
cfEzZ,25,22,mal_plain,mal_sws,3,doctor,bike,doctor,doctor,dog,bike,mal_plain_mal_sws,critical,1/5/2017,17:51,top_img,true,9656,2,1_2_1_1,word_3_word_2_word_1,far,doctor,English_Speech,home,katy,2012-07-24,,,,,,,,female
