subject_id,trial_number,trial_id,plain,sws,instruction_number,sound1_item,sound2_item,sound3_item,top_image,left_image,right_image,sound_gender,trial_type,date_stamp,time_stamp,side_chosen,accuracy,rt,play_counter,order,pic_position,distance,chosen_pic,test_lang,testing_loc,tester,date_of_birth,ethnicity,native_lang,other_langs,parental_occ,dev_info,birth_order,num_siblings,gender
cmCq9,1,0,mal_plain,fem_sws,1,fireman,tractor,fireman,fireman,tractor,glasses,mal_plain_fem_sws,training,2/1/2017,10:23,top_img,true,5097,2,2_1_2_1,word_1_word_3_word_2,far,fireman,English_Speech,preschool,hanna,2013-05-10,,English,,,,1,1,female
cmCq9,1,0,mal_plain,fem_sws,2,fireman,tractor,fireman,fireman,tractor,glasses,mal_plain_fem_sws,training,2/1/2017,10:23,left,true,2272,2,2_1_2_1,word_1_word_3_word_2,far,tractor,English_Speech,preschool,hanna,2013-05-10,,English,,,,1,1,female
cmCq9,1,0,mal_plain,fem_sws,3,fireman,tractor,fireman,fireman,tractor,glasses,mal_plain_fem_sws,training,2/1/2017,10:23,top_img,true,5115,12,2_1_2_1,word_1_word_3_word_2,far,fireman,English_Speech,preschool,hanna,2013-05-10,,English,,,,1,1,female
cmCq9,2,19,mal_plain,fem_sws,1,santa,building_blocks,santa,tree,building_blocks,santa,mal_plain_fem_sws,critical,2/1/2017,10:23,right,true,2847,2,2_1_2_1,word_3_word_2_word_1,far,santa,English_Speech,preschool,hanna,2013-05-10,,English,,,,1,1,female
cmCq9,2,19,mal_plain,fem_sws,2,santa,building_blocks,santa,tree,building_blocks,santa,mal_plain_fem_sws,critical,2/1/2017,10:23,left,true,4216,2,2_1_2_1,word_3_word_2_word_1,far,building_blocks,English_Speech,preschool,hanna,2013-05-10,,English,,,,1,1,female
cmCq9,2,19,mal_plain,fem_sws,3,santa,building_blocks,santa,tree,building_blocks,santa,mal_plain_fem_sws,critical,2/1/2017,10:23,top_img,false,6653,6,2_1_2_1,word_3_word_2_word_1,far,tree,English_Speech,preschool,hanna,2013-05-10,,English,,,,1,1,female
cmCq9,3,14,mal_plain,fem_sws,1,cheese,door,shoes,cheese,door,shoes,mal_plain_fem_sws,critical,2/1/2017,10:23,top_img,true,2613,2,2_1_1_0,word_1_word_3_word_2,different,cheese,English_Speech,preschool,hanna,2013-05-10,,English,,,,1,1,female
cmCq9,3,14,mal_plain,fem_sws,2,cheese,door,shoes,cheese,door,shoes,mal_plain_fem_sws,critical,2/1/2017,10:23,left,true,2377,2,2_1_1_0,word_1_word_3_word_2,different,door,English_Speech,preschool,hanna,2013-05-10,,English,,,,1,1,female
cmCq9,3,14,mal_plain,fem_sws,3,cheese,door,shoes,cheese,door,shoes,mal_plain_fem_sws,critical,2/1/2017,10:23,right,true,5666,10,2_1_1_0,word_1_word_3_word_2,different,shoes,English_Speech,preschool,hanna,2013-05-10,,English,,,,1,1,female
cmCq9,4,11,mal_plain,fem_sws,1,lorry,cow,book,lorry,book,cow,mal_plain_fem_sws,critical,2/1/2017,10:23,top_img,true,2619,2,2_1_1_0,word_2_word_1_word_3,different,lorry,English_Speech,preschool,hanna,2013-05-10,,English,,,,1,1,female
cmCq9,4,11,mal_plain,fem_sws,2,lorry,cow,book,lorry,book,cow,mal_plain_fem_sws,critical,2/1/2017,10:23,right,true,2579,1,2_1_1_0,word_2_word_1_word_3,different,cow,English_Speech,preschool,hanna,2013-05-10,,English,,,,1,1,female
cmCq9,4,11,mal_plain,fem_sws,3,lorry,cow,book,lorry,book,cow,mal_plain_fem_sws,critical,2/1/2017,10:23,left,true,6512,8,2_1_1_0,word_2_word_1_word_3,different,book,English_Speech,preschool,hanna,2013-05-10,,English,,,,1,1,female
cmCq9,5,10,mal_plain,fem_sws,1,tshirt,pig,hat,pig,tshirt,hat,mal_plain_fem_sws,critical,2/1/2017,10:23,left,true,6833,2,2_1_2_0,word_1_word_2_word_3,different,tshirt,English_Speech,preschool,hanna,2013-05-10,,English,,,,1,1,female
cmCq9,5,10,mal_plain,fem_sws,2,tshirt,pig,hat,pig,tshirt,hat,mal_plain_fem_sws,critical,2/1/2017,10:23,top_img,true,2885,2,2_1_2_0,word_1_word_2_word_3,different,pig,English_Speech,preschool,hanna,2013-05-10,,English,,,,1,1,female
cmCq9,5,10,mal_plain,fem_sws,3,tshirt,pig,hat,pig,tshirt,hat,mal_plain_fem_sws,critical,2/1/2017,10:23,right,true,4746,5,2_1_2_0,word_1_word_2_word_3,different,hat,English_Speech,preschool,hanna,2013-05-10,,English,,,,1,1,female
cmCq9,6,7,mal_plain,fem_sws,1,horse,lolly,cat,horse,lolly,cat,mal_plain_fem_sws,critical,2/1/2017,10:23,top_img,true,2452,2,2_1_1_0,word_2_word_1_word_3,different,horse,English_Speech,preschool,hanna,2013-05-10,,English,,,,1,1,female
cmCq9,6,7,mal_plain,fem_sws,2,horse,lolly,cat,horse,lolly,cat,mal_plain_fem_sws,critical,2/1/2017,10:23,left,true,3111,2,2_1_1_0,word_2_word_1_word_3,different,lolly,English_Speech,preschool,hanna,2013-05-10,,English,,,,1,1,female
cmCq9,6,7,mal_plain,fem_sws,3,horse,lolly,cat,horse,lolly,cat,mal_plain_fem_sws,critical,2/1/2017,10:23,right,true,5414,8,2_1_1_0,word_2_word_1_word_3,different,cat,English_Speech,preschool,hanna,2013-05-10,,English,,,,1,1,female
cmCq9,7,18,mal_plain,fem_sws,1,ball,raspberry,raspberry,raspberry,camera,ball,mal_plain_fem_sws,critical,2/1/2017,10:23,right,true,3315,2,2_1_1_1,word_2_word_3_word_1,near,ball,English_Speech,preschool,hanna,2013-05-10,,English,,,,1,1,female
cmCq9,7,18,mal_plain,fem_sws,2,ball,raspberry,raspberry,raspberry,camera,ball,mal_plain_fem_sws,critical,2/1/2017,10:23,top_img,true,3627,2,2_1_1_1,word_2_word_3_word_1,near,raspberry,English_Speech,preschool,hanna,2013-05-10,,English,,,,1,1,female
cmCq9,7,18,mal_plain,fem_sws,3,ball,raspberry,raspberry,raspberry,camera,ball,mal_plain_fem_sws,critical,2/1/2017,10:23,top_img,true,7580,4,2_1_1_1,word_2_word_3_word_1,near,raspberry,English_Speech,preschool,hanna,2013-05-10,,English,,,,1,1,female
cmCq9,8,9,mal_plain,fem_sws,1,window,pizza,grapes,pizza,grapes,window,mal_plain_fem_sws,critical,2/1/2017,10:23,right,true,2615,1,2_1_2_0,word_1_word_3_word_2,different,window,English_Speech,preschool,hanna,2013-05-10,,English,,,,1,1,female
cmCq9,8,9,mal_plain,fem_sws,2,window,pizza,grapes,pizza,grapes,window,mal_plain_fem_sws,critical,2/1/2017,10:23,top_img,true,1983,1,2_1_2_0,word_1_word_3_word_2,different,pizza,English_Speech,preschool,hanna,2013-05-10,,English,,,,1,1,female
cmCq9,8,9,mal_plain,fem_sws,3,window,pizza,grapes,pizza,grapes,window,mal_plain_fem_sws,critical,2/1/2017,10:23,left,true,4934,7,2_1_2_0,word_1_word_3_word_2,different,grapes,English_Speech,preschool,hanna,2013-05-10,,English,,,,1,1,female
cmCq9,9,22,mal_plain,fem_sws,1,doctor,bike,doctor,dog,doctor,bike,mal_plain_fem_sws,critical,2/1/2017,10:23,left,true,3397,2,2_1_2_1,word_2_word_3_word_1,far,doctor,English_Speech,preschool,hanna,2013-05-10,,English,,,,1,1,female
cmCq9,9,22,mal_plain,fem_sws,2,doctor,bike,doctor,dog,doctor,bike,mal_plain_fem_sws,critical,2/1/2017,10:23,right,true,2443,1,2_1_2_1,word_2_word_3_word_1,far,bike,English_Speech,preschool,hanna,2013-05-10,,English,,,,1,1,female
cmCq9,9,22,mal_plain,fem_sws,3,doctor,bike,doctor,dog,doctor,bike,mal_plain_fem_sws,critical,2/1/2017,10:23,left,true,8051,2,2_1_2_1,word_2_word_3_word_1,far,doctor,English_Speech,preschool,hanna,2013-05-10,,English,,,,1,1,female
cmCq9,10,16,mal_plain,fem_sws,1,chair,banana,banana,banana,paintbrush,chair,mal_plain_fem_sws,critical,2/1/2017,10:23,right,true,2764,2,2_1_1_1,word_2_word_1_word_3,near,chair,English_Speech,preschool,hanna,2013-05-10,,English,,,,1,1,female
cmCq9,10,16,mal_plain,fem_sws,2,chair,banana,banana,banana,paintbrush,chair,mal_plain_fem_sws,critical,2/1/2017,10:23,top_img,true,2126,2,2_1_1_1,word_2_word_1_word_3,near,banana,English_Speech,preschool,hanna,2013-05-10,,English,,,,1,1,female
cmCq9,10,16,mal_plain,fem_sws,3,chair,banana,banana,banana,paintbrush,chair,mal_plain_fem_sws,critical,2/1/2017,10:23,left,false,1989,10,2_1_1_1,word_2_word_1_word_3,near,paintbrush,English_Speech,preschool,hanna,2013-05-10,,English,,,,1,1,female
cmCq9,11,13,mal_plain,fem_sws,1,toothbrush,airplane,bread,bread,toothbrush,airplane,mal_plain_fem_sws,critical,2/1/2017,10:23,left,true,2744,2,2_1_2_0,word_3_word_1_word_2,different,toothbrush,English_Speech,preschool,hanna,2013-05-10,,English,,,,1,1,female
cmCq9,11,13,mal_plain,fem_sws,2,toothbrush,airplane,bread,bread,toothbrush,airplane,mal_plain_fem_sws,critical,2/1/2017,10:23,right,true,2276,2,2_1_2_0,word_3_word_1_word_2,different,airplane,English_Speech,preschool,hanna,2013-05-10,,English,,,,1,1,female
cmCq9,11,13,mal_plain,fem_sws,3,toothbrush,airplane,bread,bread,toothbrush,airplane,mal_plain_fem_sws,critical,2/1/2017,10:23,top_img,true,7648,4,2_1_2_0,word_3_word_1_word_2,different,bread,English_Speech,preschool,hanna,2013-05-10,,English,,,,1,1,female
cmCq9,12,15,mal_plain,fem_sws,1,slide,pencil,beans,pencil,beans,slide,mal_plain_fem_sws,critical,2/1/2017,10:23,right,true,3716,2,2_1_1_0,word_2_word_3_word_1,different,slide,English_Speech,preschool,hanna,2013-05-10,,English,,,,1,1,female
cmCq9,12,15,mal_plain,fem_sws,2,slide,pencil,beans,pencil,beans,slide,mal_plain_fem_sws,critical,2/1/2017,10:23,top_img,true,1879,2,2_1_1_0,word_2_word_3_word_1,different,pencil,English_Speech,preschool,hanna,2013-05-10,,English,,,,1,1,female
cmCq9,12,15,mal_plain,fem_sws,3,slide,pencil,beans,pencil,beans,slide,mal_plain_fem_sws,critical,2/1/2017,10:23,left,true,4566,2,2_1_1_0,word_2_word_3_word_1,different,beans,English_Speech,preschool,hanna,2013-05-10,,English,,,,1,1,female
cmCq9,13,4,mal_plain,fem_sws,1,coat,strawberry,coat,strawberry,flower,coat,mal_plain_fem_sws,critical,2/1/2017,10:23,right,true,2554,2,1_2_1_1,word_2_word_3_word_1,far,coat,English_Speech,preschool,hanna,2013-05-10,,English,,,,1,1,female
cmCq9,13,4,mal_plain,fem_sws,2,coat,strawberry,coat,strawberry,flower,coat,mal_plain_fem_sws,critical,2/1/2017,10:23,top_img,true,2107,1,1_2_1_1,word_2_word_3_word_1,far,strawberry,English_Speech,preschool,hanna,2013-05-10,,English,,,,1,1,female
cmCq9,13,4,mal_plain,fem_sws,3,coat,strawberry,coat,strawberry,flower,coat,mal_plain_fem_sws,critical,2/1/2017,10:23,left,false,5149,2,1_2_1_1,word_2_word_3_word_1,far,flower,English_Speech,preschool,hanna,2013-05-10,,English,,,,1,1,female
cmCq9,14,1,mal_plain,fem_sws,1,spoon,train,train,spoon,train,baby,mal_plain_fem_sws,critical,2/1/2017,10:23,top_img,true,3114,2,1_2_2_1,word_1_word_3_word_2,near,spoon,English_Speech,preschool,hanna,2013-05-10,,English,,,,1,1,female
cmCq9,14,1,mal_plain,fem_sws,2,spoon,train,train,spoon,train,baby,mal_plain_fem_sws,critical,2/1/2017,10:23,left,true,2309,2,1_2_2_1,word_1_word_3_word_2,near,train,English_Speech,preschool,hanna,2013-05-10,,English,,,,1,1,female
cmCq9,14,1,mal_plain,fem_sws,3,spoon,train,train,spoon,train,baby,mal_plain_fem_sws,critical,2/1/2017,10:23,right,false,108,3,1_2_2_1,word_1_word_3_word_2,near,baby,English_Speech,preschool,hanna,2013-05-10,,English,,,,1,1,female
cmCq9,15,21,mal_plain,fem_sws,1,eye,frog,sheep,sheep,frog,eye,mal_plain_fem_sws,critical,2/1/2017,10:23,right,true,2685,2,2_1_1_0,word_2_word_1_word_3,different,eye,English_Speech,preschool,hanna,2013-05-10,,English,,,,1,1,female
cmCq9,15,21,mal_plain,fem_sws,2,eye,frog,sheep,sheep,frog,eye,mal_plain_fem_sws,critical,2/1/2017,10:23,left,true,3128,2,2_1_1_0,word_2_word_1_word_3,different,frog,English_Speech,preschool,hanna,2013-05-10,,English,,,,1,1,female
cmCq9,15,21,mal_plain,fem_sws,3,eye,frog,sheep,sheep,frog,eye,mal_plain_fem_sws,critical,2/1/2017,10:23,top_img,true,3751,2,2_1_1_0,word_2_word_1_word_3,different,sheep,English_Speech,preschool,hanna,2013-05-10,,English,,,,1,1,female
cmCq9,16,12,mal_plain,fem_sws,1,yoghurt,foot,yoghurt,gloves,foot,yoghurt,mal_plain_fem_sws,critical,2/1/2017,10:23,right,true,2732,2,1_2_1_1,word_3_word_1_word_2,far,yoghurt,English_Speech,preschool,hanna,2013-05-10,,English,,,,1,1,female
cmCq9,16,12,mal_plain,fem_sws,2,yoghurt,foot,yoghurt,gloves,foot,yoghurt,mal_plain_fem_sws,critical,2/1/2017,10:23,left,true,3396,2,1_2_1_1,word_3_word_1_word_2,far,foot,English_Speech,preschool,hanna,2013-05-10,,English,,,,1,1,female
cmCq9,16,12,mal_plain,fem_sws,3,yoghurt,foot,yoghurt,gloves,foot,yoghurt,mal_plain_fem_sws,critical,2/1/2017,10:23,right,true,6449,2,1_2_1_1,word_3_word_1_word_2,far,yoghurt,English_Speech,preschool,hanna,2013-05-10,,English,,,,1,1,female
cmCq9,17,2,mal_plain,fem_sws,1,chicken,fork,bed,bed,chicken,fork,mal_plain_fem_sws,critical,2/1/2017,10:23,left,true,2619,2,1_2_2_0,word_1_word_2_word_3,different,chicken,English_Speech,preschool,hanna,2013-05-10,,English,,,,1,1,female
cmCq9,17,2,mal_plain,fem_sws,2,chicken,fork,bed,bed,chicken,fork,mal_plain_fem_sws,critical,2/1/2017,10:23,right,true,2411,2,1_2_2_0,word_1_word_2_word_3,different,fork,English_Speech,preschool,hanna,2013-05-10,,English,,,,1,1,female
cmCq9,17,2,mal_plain,fem_sws,3,chicken,fork,bed,bed,chicken,fork,mal_plain_fem_sws,critical,2/1/2017,10:23,top_img,true,3826,1,1_2_2_0,word_1_word_2_word_3,different,bed,English_Speech,preschool,hanna,2013-05-10,,English,,,,1,1,female
cmCq9,18,8,mal_plain,fem_sws,1,fire_engine,ear,wellyboots,wellyboots,fire_engine,ear,mal_plain_fem_sws,critical,2/1/2017,10:23,left,true,2916,2,1_2_2_0,word_1_word_2_word_3,different,fire_engine,English_Speech,preschool,hanna,2013-05-10,,English,,,,1,1,female
cmCq9,18,8,mal_plain,fem_sws,2,fire_engine,ear,wellyboots,wellyboots,fire_engine,ear,mal_plain_fem_sws,critical,2/1/2017,10:23,right,true,2369,1,1_2_2_0,word_1_word_2_word_3,different,ear,English_Speech,preschool,hanna,2013-05-10,,English,,,,1,1,female
cmCq9,18,8,mal_plain,fem_sws,3,fire_engine,ear,wellyboots,wellyboots,fire_engine,ear,mal_plain_fem_sws,critical,2/1/2017,10:23,top_img,true,2678,1,1_2_2_0,word_1_word_2_word_3,different,wellyboots,English_Speech,preschool,hanna,2013-05-10,,English,,,,1,1,female
cmCq9,19,6,mal_plain,fem_sws,1,peas,carrot,carrot,carrot,bird,peas,mal_plain_fem_sws,critical,2/1/2017,10:23,right,true,2360,2,1_2_2_1,word_3_word_1_word_2,near,peas,English_Speech,preschool,hanna,2013-05-10,,English,,,,1,1,female
cmCq9,19,6,mal_plain,fem_sws,2,peas,carrot,carrot,carrot,bird,peas,mal_plain_fem_sws,critical,2/1/2017,10:23,top_img,true,2170,2,1_2_2_1,word_3_word_1_word_2,near,carrot,English_Speech,preschool,hanna,2013-05-10,,English,,,,1,1,female
cmCq9,19,6,mal_plain,fem_sws,3,peas,carrot,carrot,carrot,bird,peas,mal_plain_fem_sws,critical,2/1/2017,10:23,top_img,true,3539,1,1_2_2_1,word_3_word_1_word_2,near,carrot,English_Speech,preschool,hanna,2013-05-10,,English,,,,1,1,female
cmCq9,20,5,mal_plain,fem_sws,1,orange,mouth,car,orange,mouth,car,mal_plain_fem_sws,critical,2/1/2017,10:23,top_img,true,3306,2,1_2_2_0,word_1_word_3_word_2,different,orange,English_Speech,preschool,hanna,2013-05-10,,English,,,,1,1,female
cmCq9,20,5,mal_plain,fem_sws,2,orange,mouth,car,orange,mouth,car,mal_plain_fem_sws,critical,2/1/2017,10:23,left,true,2213,2,1_2_2_0,word_1_word_3_word_2,different,mouth,English_Speech,preschool,hanna,2013-05-10,,English,,,,1,1,female
cmCq9,20,5,mal_plain,fem_sws,3,orange,mouth,car,orange,mouth,car,mal_plain_fem_sws,critical,2/1/2017,10:23,right,true,3213,2,1_2_2_0,word_1_word_3_word_2,different,car,English_Speech,preschool,hanna,2013-05-10,,English,,,,1,1,female
cmCq9,21,23,mal_plain,fem_sws,1,bath,table,teddy_bear,table,bath,teddy_bear,mal_plain_fem_sws,critical,2/1/2017,10:23,left,true,2911,2,2_1_1_0,word_3_word_1_word_2,different,bath,English_Speech,preschool,hanna,2013-05-10,,English,,,,1,1,female
cmCq9,21,23,mal_plain,fem_sws,2,bath,table,teddy_bear,table,bath,teddy_bear,mal_plain_fem_sws,critical,2/1/2017,10:23,top_img,true,2135,1,2_1_1_0,word_3_word_1_word_2,different,table,English_Speech,preschool,hanna,2013-05-10,,English,,,,1,1,female
cmCq9,21,23,mal_plain,fem_sws,3,bath,table,teddy_bear,table,bath,teddy_bear,mal_plain_fem_sws,critical,2/1/2017,10:23,right,true,3672,1,2_1_1_0,word_3_word_1_word_2,different,teddy_bear,English_Speech,preschool,hanna,2013-05-10,,English,,,,1,1,female
cmCq9,22,20,mal_plain,fem_sws,1,apple,jumper,jumper,apple,rabbit,jumper,mal_plain_fem_sws,critical,2/1/2017,10:23,top_img,true,2382,2,2_1_1_1,word_3_word_2_word_1,near,apple,English_Speech,preschool,hanna,2013-05-10,,English,,,,1,1,female
cmCq9,22,20,mal_plain,fem_sws,2,apple,jumper,jumper,apple,rabbit,jumper,mal_plain_fem_sws,critical,2/1/2017,10:23,right,true,4130,1,2_1_1_1,word_3_word_2_word_1,near,jumper,English_Speech,preschool,hanna,2013-05-10,,English,,,,1,1,female
cmCq9,22,20,mal_plain,fem_sws,3,apple,jumper,jumper,apple,rabbit,jumper,mal_plain_fem_sws,critical,2/1/2017,10:23,right,true,2842,2,2_1_1_1,word_3_word_2_word_1,near,jumper,English_Speech,preschool,hanna,2013-05-10,,English,,,,1,1,female
cmCq9,23,24,mal_plain,fem_sws,1,sink,socks,socks,sink,fish,socks,mal_plain_fem_sws,critical,2/1/2017,10:23,top_img,true,2845,2,1_2_2_1,word_1_word_2_word_3,near,sink,English_Speech,preschool,hanna,2013-05-10,,English,,,,1,1,female
cmCq9,23,24,mal_plain,fem_sws,2,sink,socks,socks,sink,fish,socks,mal_plain_fem_sws,critical,2/1/2017,10:23,right,true,2385,2,1_2_2_1,word_1_word_2_word_3,near,socks,English_Speech,preschool,hanna,2013-05-10,,English,,,,1,1,female
cmCq9,23,24,mal_plain,fem_sws,3,sink,socks,socks,sink,fish,socks,mal_plain_fem_sws,critical,2/1/2017,10:23,right,true,3718,3,1_2_2_1,word_1_word_2_word_3,near,socks,English_Speech,preschool,hanna,2013-05-10,,English,,,,1,1,female
cmCq9,24,17,mal_plain,fem_sws,1,cake,ambulance,cake,hand,ambulance,cake,mal_plain_fem_sws,critical,2/1/2017,10:23,right,true,2274,2,1_2_1_1,word_3_word_2_word_1,far,cake,English_Speech,preschool,hanna,2013-05-10,,English,,,,1,1,female
cmCq9,24,17,mal_plain,fem_sws,2,cake,ambulance,cake,hand,ambulance,cake,mal_plain_fem_sws,critical,2/1/2017,10:23,left,true,2544,2,1_2_1_1,word_3_word_2_word_1,far,ambulance,English_Speech,preschool,hanna,2013-05-10,,English,,,,1,1,female
cmCq9,24,17,mal_plain,fem_sws,3,cake,ambulance,cake,hand,ambulance,cake,mal_plain_fem_sws,critical,2/1/2017,10:23,right,true,5480,1,1_2_1_1,word_3_word_2_word_1,far,cake,English_Speech,preschool,hanna,2013-05-10,,English,,,,1,1,female
cmCq9,25,3,mal_plain,fem_sws,1,trousers,nose,trousers,telephone,trousers,nose,mal_plain_fem_sws,critical,2/1/2017,10:23,left,true,3151,2,1_2_1_1,word_3_word_1_word_2,far,trousers,English_Speech,preschool,hanna,2013-05-10,,English,,,,1,1,female
cmCq9,25,3,mal_plain,fem_sws,2,trousers,nose,trousers,telephone,trousers,nose,mal_plain_fem_sws,critical,2/1/2017,10:23,right,true,2658,1,1_2_1_1,word_3_word_1_word_2,far,nose,English_Speech,preschool,hanna,2013-05-10,,English,,,,1,1,female
cmCq9,25,3,mal_plain,fem_sws,3,trousers,nose,trousers,telephone,trousers,nose,mal_plain_fem_sws,critical,2/1/2017,10:23,top_img,false,2482,1,1_2_1_1,word_3_word_1_word_2,far,telephone,English_Speech,preschool,hanna,2013-05-10,,English,,,,1,1,female
