subject_id,trial_number,trial_id,plain,sws,instruction_number,sound1_item,sound2_item,sound3_item,top_image,left_image,right_image,sound_gender,trial_type,date_stamp,time_stamp,side_chosen,accuracy,rt,play_counter,order,pic_position,distance,chosen_pic,test_lang,testing_loc,tester,date_of_birth,ethnicity,native_lang,other_langs,parental_occ,dev_info,birth_order,num_siblings,gender
Du1Oi,1,0,fem_plain,mal_sws,1,tractor,fireman,fireman,glasses,fireman,tractor,fem_plain_mal_sws,training,1/11/2017,14:27,right,true,2629,4,1_2_2_1,word_2_word_1_word_3,near,tractor,English_Speech,preschool,katy,,,,,,,,,male
Du1Oi,1,0,fem_plain,mal_sws,2,tractor,fireman,fireman,glasses,fireman,tractor,fem_plain_mal_sws,training,1/11/2017,14:27,left,true,2672,3,1_2_2_1,word_2_word_1_word_3,near,fireman,English_Speech,preschool,katy,,,,,,,,,male
Du1Oi,1,0,fem_plain,mal_sws,3,tractor,fireman,fireman,glasses,fireman,tractor,fem_plain_mal_sws,training,1/11/2017,14:27,left,true,1783,4,1_2_2_1,word_2_word_1_word_3,near,fireman,English_Speech,preschool,katy,,,,,,,,,male
Du1Oi,2,4,fem_plain,mal_sws,1,strawberry,flower,strawberry,flower,coat,strawberry,fem_plain_mal_sws,critical,1/11/2017,14:27,right,true,2150,2,1_2_1_1,word_3_word_1_word_2,far,strawberry,English_Speech,preschool,katy,,,,,,,,,male
Du1Oi,2,4,fem_plain,mal_sws,2,strawberry,flower,strawberry,flower,coat,strawberry,fem_plain_mal_sws,critical,1/11/2017,14:27,top_img,true,2065,1,1_2_1_1,word_3_word_1_word_2,far,flower,English_Speech,preschool,katy,,,,,,,,,male
Du1Oi,2,4,fem_plain,mal_sws,3,strawberry,flower,strawberry,flower,coat,strawberry,fem_plain_mal_sws,critical,1/11/2017,14:27,right,true,2965,3,1_2_1_1,word_3_word_1_word_2,far,strawberry,English_Speech,preschool,katy,,,,,,,,,male
Du1Oi,3,9,fem_plain,mal_sws,1,grapes,pizza,window,pizza,grapes,window,fem_plain_mal_sws,critical,1/11/2017,14:27,left,true,2416,1,1_2_2_0,word_1_word_3_word_2,different,grapes,English_Speech,preschool,katy,,,,,,,,,male
Du1Oi,3,9,fem_plain,mal_sws,2,grapes,pizza,window,pizza,grapes,window,fem_plain_mal_sws,critical,1/11/2017,14:27,top_img,true,2406,1,1_2_2_0,word_1_word_3_word_2,different,pizza,English_Speech,preschool,katy,,,,,,,,,male
Du1Oi,3,9,fem_plain,mal_sws,3,grapes,pizza,window,pizza,grapes,window,fem_plain_mal_sws,critical,1/11/2017,14:27,right,true,3131,1,1_2_2_0,word_1_word_3_word_2,different,window,English_Speech,preschool,katy,,,,,,,,,male
Du1Oi,4,21,fem_plain,mal_sws,1,eye,frog,sheep,sheep,eye,frog,fem_plain_mal_sws,critical,1/11/2017,14:27,left,true,2888,3,1_2_2_0,word_2_word_3_word_1,different,eye,English_Speech,preschool,katy,,,,,,,,,male
Du1Oi,4,21,fem_plain,mal_sws,2,eye,frog,sheep,sheep,eye,frog,fem_plain_mal_sws,critical,1/11/2017,14:27,right,true,2975,1,1_2_2_0,word_2_word_3_word_1,different,frog,English_Speech,preschool,katy,,,,,,,,,male
Du1Oi,4,21,fem_plain,mal_sws,3,eye,frog,sheep,sheep,eye,frog,fem_plain_mal_sws,critical,1/11/2017,14:27,top_img,true,3087,2,1_2_2_0,word_2_word_3_word_1,different,sheep,English_Speech,preschool,katy,,,,,,,,,male
Du1Oi,5,20,fem_plain,mal_sws,1,jumper,rabbit,rabbit,rabbit,apple,jumper,fem_plain_mal_sws,critical,1/11/2017,14:27,right,true,2135,2,2_1_1_1,word_2_word_3_word_1,near,jumper,English_Speech,preschool,katy,,,,,,,,,male
Du1Oi,5,20,fem_plain,mal_sws,2,jumper,rabbit,rabbit,rabbit,apple,jumper,fem_plain_mal_sws,critical,1/11/2017,14:27,top_img,true,2181,1,2_1_1_1,word_2_word_3_word_1,near,rabbit,English_Speech,preschool,katy,,,,,,,,,male
Du1Oi,5,20,fem_plain,mal_sws,3,jumper,rabbit,rabbit,rabbit,apple,jumper,fem_plain_mal_sws,critical,1/11/2017,14:27,left,false,2051,2,2_1_1_1,word_2_word_3_word_1,near,apple,English_Speech,preschool,katy,,,,,,,,,male
Du1Oi,6,17,fem_plain,mal_sws,1,ambulance,cake,cake,hand,ambulance,cake,fem_plain_mal_sws,critical,1/11/2017,14:27,left,true,2517,1,2_1_1_1,word_3_word_2_word_1,near,ambulance,English_Speech,preschool,katy,,,,,,,,,male
Du1Oi,6,17,fem_plain,mal_sws,2,ambulance,cake,cake,hand,ambulance,cake,fem_plain_mal_sws,critical,1/11/2017,14:27,right,true,2409,4,2_1_1_1,word_3_word_2_word_1,near,cake,English_Speech,preschool,katy,,,,,,,,,male
Du1Oi,6,17,fem_plain,mal_sws,3,ambulance,cake,cake,hand,ambulance,cake,fem_plain_mal_sws,critical,1/11/2017,14:27,right,true,3483,6,2_1_1_1,word_3_word_2_word_1,near,cake,English_Speech,preschool,katy,,,,,,,,,male
Du1Oi,7,12,fem_plain,mal_sws,1,gloves,yoghurt,yoghurt,yoghurt,gloves,foot,fem_plain_mal_sws,critical,1/11/2017,14:27,left,true,3650,2,1_2_2_1,word_2_word_3_word_1,near,gloves,English_Speech,preschool,katy,,,,,,,,,male
Du1Oi,7,12,fem_plain,mal_sws,2,gloves,yoghurt,yoghurt,yoghurt,gloves,foot,fem_plain_mal_sws,critical,1/11/2017,14:27,top_img,true,2505,1,1_2_2_1,word_2_word_3_word_1,near,yoghurt,English_Speech,preschool,katy,,,,,,,,,male
Du1Oi,7,12,fem_plain,mal_sws,3,gloves,yoghurt,yoghurt,yoghurt,gloves,foot,fem_plain_mal_sws,critical,1/11/2017,14:27,top_img,true,3700,1,1_2_2_1,word_2_word_3_word_1,near,yoghurt,English_Speech,preschool,katy,,,,,,,,,male
Du1Oi,8,1,fem_plain,mal_sws,1,baby,spoon,baby,spoon,train,baby,fem_plain_mal_sws,critical,1/11/2017,14:27,right,true,3972,1,2_1_2_1,word_1_word_3_word_2,far,baby,English_Speech,preschool,katy,,,,,,,,,male
Du1Oi,8,1,fem_plain,mal_sws,2,baby,spoon,baby,spoon,train,baby,fem_plain_mal_sws,critical,1/11/2017,14:27,top_img,true,2016,2,2_1_2_1,word_1_word_3_word_2,far,spoon,English_Speech,preschool,katy,,,,,,,,,male
Du1Oi,8,1,fem_plain,mal_sws,3,baby,spoon,baby,spoon,train,baby,fem_plain_mal_sws,critical,1/11/2017,14:27,right,true,3823,1,2_1_2_1,word_1_word_3_word_2,far,baby,English_Speech,preschool,katy,,,,,,,,,male
Du1Oi,9,19,fem_plain,mal_sws,1,tree,santa,building_blocks,santa,building_blocks,tree,fem_plain_mal_sws,critical,1/11/2017,14:27,right,true,2379,2,2_1_1_0,word_1_word_2_word_3,different,tree,English_Speech,preschool,katy,,,,,,,,,male
Du1Oi,9,19,fem_plain,mal_sws,2,tree,santa,building_blocks,santa,building_blocks,tree,fem_plain_mal_sws,critical,1/11/2017,14:27,top_img,true,2974,4,2_1_1_0,word_1_word_2_word_3,different,santa,English_Speech,preschool,katy,,,,,,,,,male
Du1Oi,9,19,fem_plain,mal_sws,3,tree,santa,building_blocks,santa,building_blocks,tree,fem_plain_mal_sws,critical,1/11/2017,14:27,left,true,7645,2,2_1_1_0,word_1_word_2_word_3,different,building_blocks,English_Speech,preschool,katy,,,,,,,,,male
Du1Oi,10,23,fem_plain,mal_sws,1,teddy_bear,bath,table,table,teddy_bear,bath,fem_plain_mal_sws,critical,1/11/2017,14:27,left,true,2799,2,2_1_1_0,word_3_word_2_word_1,different,teddy_bear,English_Speech,preschool,katy,,,,,,,,,male
Du1Oi,10,23,fem_plain,mal_sws,2,teddy_bear,bath,table,table,teddy_bear,bath,fem_plain_mal_sws,critical,1/11/2017,14:27,right,true,2503,2,2_1_1_0,word_3_word_2_word_1,different,bath,English_Speech,preschool,katy,,,,,,,,,male
Du1Oi,10,23,fem_plain,mal_sws,3,teddy_bear,bath,table,table,teddy_bear,bath,fem_plain_mal_sws,critical,1/11/2017,14:27,top_img,true,3241,2,2_1_1_0,word_3_word_2_word_1,different,table,English_Speech,preschool,katy,,,,,,,,,male
Du1Oi,11,18,fem_plain,mal_sws,1,ball,raspberry,ball,raspberry,camera,ball,fem_plain_mal_sws,critical,1/11/2017,14:27,right,true,2996,1,1_2_1_1,word_2_word_3_word_1,far,ball,English_Speech,preschool,katy,,,,,,,,,male
Du1Oi,11,18,fem_plain,mal_sws,2,ball,raspberry,ball,raspberry,camera,ball,fem_plain_mal_sws,critical,1/11/2017,14:27,top_img,true,2741,2,1_2_1_1,word_2_word_3_word_1,far,raspberry,English_Speech,preschool,katy,,,,,,,,,male
Du1Oi,11,18,fem_plain,mal_sws,3,ball,raspberry,ball,raspberry,camera,ball,fem_plain_mal_sws,critical,1/11/2017,14:27,right,true,3639,1,1_2_1_1,word_2_word_3_word_1,far,ball,English_Speech,preschool,katy,,,,,,,,,male
Du1Oi,12,24,fem_plain,mal_sws,1,socks,fish,fish,sink,fish,socks,fem_plain_mal_sws,critical,1/11/2017,14:27,right,true,3066,4,2_1_1_1,word_1_word_2_word_3,near,socks,English_Speech,preschool,katy,,,,,,,,,male
Du1Oi,12,24,fem_plain,mal_sws,2,socks,fish,fish,sink,fish,socks,fem_plain_mal_sws,critical,1/11/2017,14:27,left,true,2715,1,2_1_1_1,word_1_word_2_word_3,near,fish,English_Speech,preschool,katy,,,,,,,,,male
Du1Oi,12,24,fem_plain,mal_sws,3,socks,fish,fish,sink,fish,socks,fem_plain_mal_sws,critical,1/11/2017,14:27,left,true,3349,2,2_1_1_1,word_1_word_2_word_3,near,fish,English_Speech,preschool,katy,,,,,,,,,male
Du1Oi,13,13,fem_plain,mal_sws,1,toothbrush,airplane,toothbrush,bread,airplane,toothbrush,fem_plain_mal_sws,critical,1/11/2017,14:27,right,true,2422,2,2_1_2_1,word_3_word_2_word_1,far,toothbrush,English_Speech,preschool,katy,,,,,,,,,male
Du1Oi,13,13,fem_plain,mal_sws,2,toothbrush,airplane,toothbrush,bread,airplane,toothbrush,fem_plain_mal_sws,critical,1/11/2017,14:27,left,true,3223,1,2_1_2_1,word_3_word_2_word_1,far,airplane,English_Speech,preschool,katy,,,,,,,,,male
Du1Oi,13,13,fem_plain,mal_sws,3,toothbrush,airplane,toothbrush,bread,airplane,toothbrush,fem_plain_mal_sws,critical,1/11/2017,14:27,right,true,4110,3,2_1_2_1,word_3_word_2_word_1,far,toothbrush,English_Speech,preschool,katy,,,,,,,,,male
Du1Oi,14,22,fem_plain,mal_sws,1,doctor,dog,bike,bike,dog,doctor,fem_plain_mal_sws,critical,1/11/2017,14:27,right,true,3088,1,2_1_1_0,word_1_word_2_word_3,different,doctor,English_Speech,preschool,katy,,,,,,,,,male
Du1Oi,14,22,fem_plain,mal_sws,2,doctor,dog,bike,bike,dog,doctor,fem_plain_mal_sws,critical,1/11/2017,14:27,left,true,2831,1,2_1_1_0,word_1_word_2_word_3,different,dog,English_Speech,preschool,katy,,,,,,,,,male
Du1Oi,14,22,fem_plain,mal_sws,3,doctor,dog,bike,bike,dog,doctor,fem_plain_mal_sws,critical,1/11/2017,14:27,top_img,true,4979,2,2_1_1_0,word_1_word_2_word_3,different,bike,English_Speech,preschool,katy,,,,,,,,,male
Du1Oi,15,6,fem_plain,mal_sws,1,bird,carrot,bird,carrot,bird,peas,fem_plain_mal_sws,critical,1/11/2017,14:27,left,true,2314,2,2_1_2_1,word_3_word_1_word_2,far,bird,English_Speech,preschool,katy,,,,,,,,,male
Du1Oi,15,6,fem_plain,mal_sws,2,bird,carrot,bird,carrot,bird,peas,fem_plain_mal_sws,critical,1/11/2017,14:27,top_img,true,2814,1,2_1_2_1,word_3_word_1_word_2,far,carrot,English_Speech,preschool,katy,,,,,,,,,male
Du1Oi,15,6,fem_plain,mal_sws,3,bird,carrot,bird,carrot,bird,peas,fem_plain_mal_sws,critical,1/11/2017,14:27,left,true,4615,1,2_1_2_1,word_3_word_1_word_2,far,bird,English_Speech,preschool,katy,,,,,,,,,male
Du1Oi,16,16,fem_plain,mal_sws,1,banana,chair,paintbrush,chair,banana,paintbrush,fem_plain_mal_sws,critical,1/11/2017,14:27,left,true,2084,1,2_1_2_0,word_3_word_2_word_1,different,banana,English_Speech,preschool,katy,,,,,,,,,male
Du1Oi,16,16,fem_plain,mal_sws,2,banana,chair,paintbrush,chair,banana,paintbrush,fem_plain_mal_sws,critical,1/11/2017,14:27,top_img,true,2609,1,2_1_2_0,word_3_word_2_word_1,different,chair,English_Speech,preschool,katy,,,,,,,,,male
Du1Oi,16,16,fem_plain,mal_sws,3,banana,chair,paintbrush,chair,banana,paintbrush,fem_plain_mal_sws,critical,1/11/2017,14:27,right,true,4038,3,2_1_2_0,word_3_word_2_word_1,different,paintbrush,English_Speech,preschool,katy,,,,,,,,,male
Du1Oi,17,11,fem_plain,mal_sws,1,cow,lorry,book,lorry,book,cow,fem_plain_mal_sws,critical,1/11/2017,14:27,right,true,3266,1,1_2_2_0,word_2_word_1_word_3,different,cow,English_Speech,preschool,katy,,,,,,,,,male
Du1Oi,17,11,fem_plain,mal_sws,2,cow,lorry,book,lorry,book,cow,fem_plain_mal_sws,critical,1/11/2017,14:27,top_img,true,3708,2,1_2_2_0,word_2_word_1_word_3,different,lorry,English_Speech,preschool,katy,,,,,,,,,male
Du1Oi,17,11,fem_plain,mal_sws,3,cow,lorry,book,lorry,book,cow,fem_plain_mal_sws,critical,1/11/2017,14:27,left,true,4870,1,1_2_2_0,word_2_word_1_word_3,different,book,English_Speech,preschool,katy,,,,,,,,,male
Du1Oi,18,2,fem_plain,mal_sws,1,chicken,bed,fork,bed,chicken,fork,fem_plain_mal_sws,critical,1/11/2017,14:27,left,true,3399,3,2_1_2_0,word_1_word_2_word_3,different,chicken,English_Speech,preschool,katy,,,,,,,,,male
Du1Oi,18,2,fem_plain,mal_sws,2,chicken,bed,fork,bed,chicken,fork,fem_plain_mal_sws,critical,1/11/2017,14:27,top_img,true,3171,1,2_1_2_0,word_1_word_2_word_3,different,bed,English_Speech,preschool,katy,,,,,,,,,male
Du1Oi,18,2,fem_plain,mal_sws,3,chicken,bed,fork,bed,chicken,fork,fem_plain_mal_sws,critical,1/11/2017,14:27,right,true,3484,2,2_1_2_0,word_1_word_2_word_3,different,fork,English_Speech,preschool,katy,,,,,,,,,male
Du1Oi,19,14,fem_plain,mal_sws,1,cheese,shoes,door,cheese,shoes,door,fem_plain_mal_sws,critical,1/11/2017,14:27,top_img,true,2455,1,2_1_1_0,word_1_word_2_word_3,different,cheese,English_Speech,preschool,katy,,,,,,,,,male
Du1Oi,19,14,fem_plain,mal_sws,2,cheese,shoes,door,cheese,shoes,door,fem_plain_mal_sws,critical,1/11/2017,14:27,left,true,2787,1,2_1_1_0,word_1_word_2_word_3,different,shoes,English_Speech,preschool,katy,,,,,,,,,male
Du1Oi,19,14,fem_plain,mal_sws,3,cheese,shoes,door,cheese,shoes,door,fem_plain_mal_sws,critical,1/11/2017,14:27,right,true,2344,2,2_1_1_0,word_1_word_2_word_3,different,door,English_Speech,preschool,katy,,,,,,,,,male
Du1Oi,20,5,fem_plain,mal_sws,1,mouth,orange,mouth,mouth,orange,car,fem_plain_mal_sws,critical,1/11/2017,14:27,top_img,true,2534,1,1_2_1_1,word_3_word_1_word_2,far,mouth,English_Speech,preschool,katy,,,,,,,,,male
Du1Oi,20,5,fem_plain,mal_sws,2,mouth,orange,mouth,mouth,orange,car,fem_plain_mal_sws,critical,1/11/2017,14:27,left,true,3101,1,1_2_1_1,word_3_word_1_word_2,far,orange,English_Speech,preschool,katy,,,,,,,,,male
Du1Oi,20,5,fem_plain,mal_sws,3,mouth,orange,mouth,mouth,orange,car,fem_plain_mal_sws,critical,1/11/2017,14:27,top_img,true,2786,1,1_2_1_1,word_3_word_1_word_2,far,mouth,English_Speech,preschool,katy,,,,,,,,,male
Du1Oi,21,10,fem_plain,mal_sws,1,hat,tshirt,pig,tshirt,pig,hat,fem_plain_mal_sws,critical,1/11/2017,14:27,right,true,2153,3,2_1_1_0,word_2_word_1_word_3,different,hat,English_Speech,preschool,katy,,,,,,,,,male
Du1Oi,21,10,fem_plain,mal_sws,2,hat,tshirt,pig,tshirt,pig,hat,fem_plain_mal_sws,critical,1/11/2017,14:27,top_img,true,3589,3,2_1_1_0,word_2_word_1_word_3,different,tshirt,English_Speech,preschool,katy,,,,,,,,,male
Du1Oi,21,10,fem_plain,mal_sws,3,hat,tshirt,pig,tshirt,pig,hat,fem_plain_mal_sws,critical,1/11/2017,14:27,left,true,4091,2,2_1_1_0,word_2_word_1_word_3,different,pig,English_Speech,preschool,katy,,,,,,,,,male
Du1Oi,22,7,fem_plain,mal_sws,1,cat,horse,lolly,horse,lolly,cat,fem_plain_mal_sws,critical,1/11/2017,14:27,right,true,3623,1,2_1_2_0,word_2_word_1_word_3,different,cat,English_Speech,preschool,katy,,,,,,,,,male
Du1Oi,22,7,fem_plain,mal_sws,2,cat,horse,lolly,horse,lolly,cat,fem_plain_mal_sws,critical,1/11/2017,14:27,top_img,true,2260,2,2_1_2_0,word_2_word_1_word_3,different,horse,English_Speech,preschool,katy,,,,,,,,,male
Du1Oi,22,7,fem_plain,mal_sws,3,cat,horse,lolly,horse,lolly,cat,fem_plain_mal_sws,critical,1/11/2017,14:27,left,true,2923,2,2_1_2_0,word_2_word_1_word_3,different,lolly,English_Speech,preschool,katy,,,,,,,,,male
Du1Oi,23,8,fem_plain,mal_sws,1,wellyboots,ear,fire_engine,fire_engine,wellyboots,ear,fem_plain_mal_sws,critical,1/11/2017,14:27,left,true,3304,1,2_1_1_0,word_2_word_1_word_3,different,wellyboots,English_Speech,preschool,katy,,,,,,,,,male
Du1Oi,23,8,fem_plain,mal_sws,2,wellyboots,ear,fire_engine,fire_engine,wellyboots,ear,fem_plain_mal_sws,critical,1/11/2017,14:27,right,true,2346,3,2_1_1_0,word_2_word_1_word_3,different,ear,English_Speech,preschool,katy,,,,,,,,,male
Du1Oi,23,8,fem_plain,mal_sws,3,wellyboots,ear,fire_engine,fire_engine,wellyboots,ear,fem_plain_mal_sws,critical,1/11/2017,14:27,top_img,true,4222,1,2_1_1_0,word_2_word_1_word_3,different,fire_engine,English_Speech,preschool,katy,,,,,,,,,male
Du1Oi,24,15,fem_plain,mal_sws,1,beans,slide,slide,pencil,beans,slide,fem_plain_mal_sws,critical,1/11/2017,14:27,left,true,2622,1,1_2_2_1,word_2_word_3_word_1,near,beans,English_Speech,preschool,katy,,,,,,,,,male
Du1Oi,24,15,fem_plain,mal_sws,2,beans,slide,slide,pencil,beans,slide,fem_plain_mal_sws,critical,1/11/2017,14:27,right,true,2987,2,1_2_2_1,word_2_word_3_word_1,near,slide,English_Speech,preschool,katy,,,,,,,,,male
Du1Oi,24,15,fem_plain,mal_sws,3,beans,slide,slide,pencil,beans,slide,fem_plain_mal_sws,critical,1/11/2017,14:27,right,true,3654,2,1_2_2_1,word_2_word_3_word_1,near,slide,English_Speech,preschool,katy,,,,,,,,,male
Du1Oi,25,3,fem_plain,mal_sws,1,nose,trousers,nose,telephone,nose,trousers,fem_plain_mal_sws,critical,1/11/2017,14:27,left,true,2276,2,1_2_1_1,word_3_word_2_word_1,far,nose,English_Speech,preschool,katy,,,,,,,,,male
Du1Oi,25,3,fem_plain,mal_sws,2,nose,trousers,nose,telephone,nose,trousers,fem_plain_mal_sws,critical,1/11/2017,14:27,right,true,2229,2,1_2_1_1,word_3_word_2_word_1,far,trousers,English_Speech,preschool,katy,,,,,,,,,male
Du1Oi,25,3,fem_plain,mal_sws,3,nose,trousers,nose,telephone,nose,trousers,fem_plain_mal_sws,critical,1/11/2017,14:27,left,true,3670,2,1_2_1_1,word_3_word_2_word_1,far,nose,English_Speech,preschool,katy,,,,,,,,,male
