subject_id,trial_number,trial_id,plain,sws,instruction_number,sound1_item,sound2_item,sound3_item,top_image,left_image,right_image,sound_gender,trial_type,date_stamp,time_stamp,side_chosen,accuracy,rt,play_counter,order,pic_position,distance,chosen_pic,test_lang,testing_loc,tester,date_of_birth,ethnicity,native_lang,other_langs,parental_occ,dev_info,birth_order,num_siblings,gender
FMRNW,1,0,fem_plain,mal_sws,1,tractor,glasses,tractor,glasses,fireman,tractor,fem_plain_mal_sws,training,1/11/2017,11:05,right,true,6573,2,2_1_2_1,word_2_word_1_word_3,far,tractor,English_Speech,preschool,megan,,,,,,,,,male
FMRNW,1,0,fem_plain,mal_sws,2,tractor,glasses,tractor,glasses,fireman,tractor,fem_plain_mal_sws,training,1/11/2017,11:05,top_img,true,3048,6,2_1_2_1,word_2_word_1_word_3,far,glasses,English_Speech,preschool,megan,,,,,,,,,male
FMRNW,1,0,fem_plain,mal_sws,3,tractor,glasses,tractor,glasses,fireman,tractor,fem_plain_mal_sws,training,1/11/2017,11:05,right,true,4739,3,2_1_2_1,word_2_word_1_word_3,far,tractor,English_Speech,preschool,megan,,,,,,,,,male
FMRNW,2,4,fem_plain,mal_sws,1,strawberry,flower,coat,flower,strawberry,coat,fem_plain_mal_sws,critical,1/11/2017,11:05,left,true,2794,2,2_1_1_0,word_3_word_2_word_1,different,strawberry,English_Speech,preschool,megan,,,,,,,,,male
FMRNW,2,4,fem_plain,mal_sws,2,strawberry,flower,coat,flower,strawberry,coat,fem_plain_mal_sws,critical,1/11/2017,11:05,top_img,true,3482,1,2_1_1_0,word_3_word_2_word_1,different,flower,English_Speech,preschool,megan,,,,,,,,,male
FMRNW,2,4,fem_plain,mal_sws,3,strawberry,flower,coat,flower,strawberry,coat,fem_plain_mal_sws,critical,1/11/2017,11:05,right,true,6625,2,2_1_1_0,word_3_word_2_word_1,different,coat,English_Speech,preschool,megan,,,,,,,,,male
FMRNW,3,6,fem_plain,mal_sws,1,peas,bird,bird,carrot,peas,bird,fem_plain_mal_sws,critical,1/11/2017,11:05,left,true,2104,2,1_2_2_1,word_3_word_2_word_1,near,peas,English_Speech,preschool,megan,,,,,,,,,male
FMRNW,3,6,fem_plain,mal_sws,2,peas,bird,bird,carrot,peas,bird,fem_plain_mal_sws,critical,1/11/2017,11:05,right,true,2683,4,1_2_2_1,word_3_word_2_word_1,near,bird,English_Speech,preschool,megan,,,,,,,,,male
FMRNW,3,6,fem_plain,mal_sws,3,peas,bird,bird,carrot,peas,bird,fem_plain_mal_sws,critical,1/11/2017,11:05,right,true,4892,2,1_2_2_1,word_3_word_2_word_1,near,bird,English_Speech,preschool,megan,,,,,,,,,male
FMRNW,4,24,fem_plain,mal_sws,1,fish,sink,socks,fish,sink,socks,fem_plain_mal_sws,critical,1/11/2017,11:05,top_img,true,2473,2,1_2_2_0,word_2_word_1_word_3,different,fish,English_Speech,preschool,megan,,,,,,,,,male
FMRNW,4,24,fem_plain,mal_sws,2,fish,sink,socks,fish,sink,socks,fem_plain_mal_sws,critical,1/11/2017,11:05,left,true,3126,2,1_2_2_0,word_2_word_1_word_3,different,sink,English_Speech,preschool,megan,,,,,,,,,male
FMRNW,4,24,fem_plain,mal_sws,3,fish,sink,socks,fish,sink,socks,fem_plain_mal_sws,critical,1/11/2017,11:05,top_img,false,8652,6,1_2_2_0,word_2_word_1_word_3,different,fish,English_Speech,preschool,megan,,,,,,,,,male
FMRNW,5,13,fem_plain,mal_sws,1,toothbrush,bread,toothbrush,airplane,toothbrush,bread,fem_plain_mal_sws,critical,1/11/2017,11:05,left,true,2206,2,1_2_1_1,word_2_word_1_word_3,far,toothbrush,English_Speech,preschool,megan,,,,,,,,,male
FMRNW,5,13,fem_plain,mal_sws,2,toothbrush,bread,toothbrush,airplane,toothbrush,bread,fem_plain_mal_sws,critical,1/11/2017,11:05,right,true,2908,2,1_2_1_1,word_2_word_1_word_3,far,bread,English_Speech,preschool,megan,,,,,,,,,male
FMRNW,5,13,fem_plain,mal_sws,3,toothbrush,bread,toothbrush,airplane,toothbrush,bread,fem_plain_mal_sws,critical,1/11/2017,11:05,left,true,4139,3,1_2_1_1,word_2_word_1_word_3,far,toothbrush,English_Speech,preschool,megan,,,,,,,,,male
FMRNW,6,7,fem_plain,mal_sws,1,cat,lolly,lolly,cat,horse,lolly,fem_plain_mal_sws,critical,1/11/2017,11:05,top_img,true,3659,1,2_1_1_1,word_3_word_2_word_1,near,cat,English_Speech,preschool,megan,,,,,,,,,male
FMRNW,6,7,fem_plain,mal_sws,2,cat,lolly,lolly,cat,horse,lolly,fem_plain_mal_sws,critical,1/11/2017,11:05,right,true,3609,2,2_1_1_1,word_3_word_2_word_1,near,lolly,English_Speech,preschool,megan,,,,,,,,,male
FMRNW,6,7,fem_plain,mal_sws,3,cat,lolly,lolly,cat,horse,lolly,fem_plain_mal_sws,critical,1/11/2017,11:05,left,false,9351,10,2_1_1_1,word_3_word_2_word_1,near,horse,English_Speech,preschool,megan,,,,,,,,,male
FMRNW,7,22,fem_plain,mal_sws,1,bike,doctor,dog,bike,dog,doctor,fem_plain_mal_sws,critical,1/11/2017,11:05,top_img,true,3405,4,2_1_1_0,word_1_word_2_word_3,different,bike,English_Speech,preschool,megan,,,,,,,,,male
FMRNW,7,22,fem_plain,mal_sws,2,bike,doctor,dog,bike,dog,doctor,fem_plain_mal_sws,critical,1/11/2017,11:05,right,true,3209,2,2_1_1_0,word_1_word_2_word_3,different,doctor,English_Speech,preschool,megan,,,,,,,,,male
FMRNW,7,22,fem_plain,mal_sws,3,bike,doctor,dog,bike,dog,doctor,fem_plain_mal_sws,critical,1/11/2017,11:05,left,true,2538,5,2_1_1_0,word_1_word_2_word_3,different,dog,English_Speech,preschool,megan,,,,,,,,,male
FMRNW,8,9,fem_plain,mal_sws,1,window,pizza,pizza,pizza,window,grapes,fem_plain_mal_sws,critical,1/11/2017,11:05,left,true,1905,2,1_2_2_1,word_1_word_2_word_3,near,window,English_Speech,preschool,megan,,,,,,,,,male
FMRNW,8,9,fem_plain,mal_sws,2,window,pizza,pizza,pizza,window,grapes,fem_plain_mal_sws,critical,1/11/2017,11:05,top_img,true,6113,2,1_2_2_1,word_1_word_2_word_3,near,pizza,English_Speech,preschool,megan,,,,,,,,,male
FMRNW,8,9,fem_plain,mal_sws,3,window,pizza,pizza,pizza,window,grapes,fem_plain_mal_sws,critical,1/11/2017,11:05,right,false,2505,5,1_2_2_1,word_1_word_2_word_3,near,grapes,English_Speech,preschool,megan,,,,,,,,,male
FMRNW,9,2,fem_plain,mal_sws,1,fork,chicken,fork,bed,fork,chicken,fem_plain_mal_sws,critical,1/11/2017,11:05,left,true,3107,2,2_1_2_1,word_1_word_3_word_2,far,fork,English_Speech,preschool,megan,,,,,,,,,male
FMRNW,9,2,fem_plain,mal_sws,2,fork,chicken,fork,bed,fork,chicken,fem_plain_mal_sws,critical,1/11/2017,11:05,right,true,3045,2,2_1_2_1,word_1_word_3_word_2,far,chicken,English_Speech,preschool,megan,,,,,,,,,male
FMRNW,9,2,fem_plain,mal_sws,3,fork,chicken,fork,bed,fork,chicken,fem_plain_mal_sws,critical,1/11/2017,11:05,right,false,4775,5,2_1_2_1,word_1_word_3_word_2,far,chicken,English_Speech,preschool,megan,,,,,,,,,male
FMRNW,10,17,fem_plain,mal_sws,1,hand,ambulance,hand,cake,hand,ambulance,fem_plain_mal_sws,critical,1/11/2017,11:05,left,true,5568,2,1_2_1_1,word_1_word_3_word_2,far,hand,English_Speech,preschool,megan,,,,,,,,,male
FMRNW,10,17,fem_plain,mal_sws,2,hand,ambulance,hand,cake,hand,ambulance,fem_plain_mal_sws,critical,1/11/2017,11:05,right,true,2380,1,1_2_1_1,word_1_word_3_word_2,far,ambulance,English_Speech,preschool,megan,,,,,,,,,male
FMRNW,10,17,fem_plain,mal_sws,3,hand,ambulance,hand,cake,hand,ambulance,fem_plain_mal_sws,critical,1/11/2017,11:05,right,false,2842,4,1_2_1_1,word_1_word_3_word_2,far,ambulance,English_Speech,preschool,megan,,,,,,,,,male
FMRNW,11,12,fem_plain,mal_sws,1,gloves,foot,yoghurt,yoghurt,foot,gloves,fem_plain_mal_sws,critical,1/11/2017,11:05,right,true,8241,2,2_1_2_0,word_2_word_1_word_3,different,gloves,English_Speech,preschool,megan,,,,,,,,,male
FMRNW,11,12,fem_plain,mal_sws,2,gloves,foot,yoghurt,yoghurt,foot,gloves,fem_plain_mal_sws,critical,1/11/2017,11:05,left,true,2552,2,2_1_2_0,word_2_word_1_word_3,different,foot,English_Speech,preschool,megan,,,,,,,,,male
FMRNW,11,12,fem_plain,mal_sws,3,gloves,foot,yoghurt,yoghurt,foot,gloves,fem_plain_mal_sws,critical,1/11/2017,11:05,top_img,true,5995,1,2_1_2_0,word_2_word_1_word_3,different,yoghurt,English_Speech,preschool,megan,,,,,,,,,male
FMRNW,12,18,fem_plain,mal_sws,1,camera,ball,raspberry,ball,camera,raspberry,fem_plain_mal_sws,critical,1/11/2017,11:05,left,true,2480,5,2_1_2_0,word_1_word_3_word_2,different,camera,English_Speech,preschool,megan,,,,,,,,,male
FMRNW,12,18,fem_plain,mal_sws,2,camera,ball,raspberry,ball,camera,raspberry,fem_plain_mal_sws,critical,1/11/2017,11:05,top_img,true,3085,2,2_1_2_0,word_1_word_3_word_2,different,ball,English_Speech,preschool,megan,,,,,,,,,male
FMRNW,12,18,fem_plain,mal_sws,3,camera,ball,raspberry,ball,camera,raspberry,fem_plain_mal_sws,critical,1/11/2017,11:05,right,true,6458,4,2_1_2_0,word_1_word_3_word_2,different,raspberry,English_Speech,preschool,megan,,,,,,,,,male
FMRNW,13,23,fem_plain,mal_sws,1,bath,teddy_bear,table,table,teddy_bear,bath,fem_plain_mal_sws,critical,1/11/2017,11:05,right,true,4074,4,1_2_2_0,word_3_word_2_word_1,different,bath,English_Speech,preschool,megan,,,,,,,,,male
FMRNW,13,23,fem_plain,mal_sws,2,bath,teddy_bear,table,table,teddy_bear,bath,fem_plain_mal_sws,critical,1/11/2017,11:05,left,true,2720,2,1_2_2_0,word_3_word_2_word_1,different,teddy_bear,English_Speech,preschool,megan,,,,,,,,,male
FMRNW,13,23,fem_plain,mal_sws,3,bath,teddy_bear,table,table,teddy_bear,bath,fem_plain_mal_sws,critical,1/11/2017,11:05,right,false,2351,2,1_2_2_0,word_3_word_2_word_1,different,bath,English_Speech,preschool,megan,,,,,,,,,male
FMRNW,14,15,fem_plain,mal_sws,1,slide,pencil,beans,pencil,slide,beans,fem_plain_mal_sws,critical,1/11/2017,11:05,left,true,2456,5,2_1_1_0,word_2_word_1_word_3,different,slide,English_Speech,preschool,megan,,,,,,,,,male
FMRNW,14,15,fem_plain,mal_sws,2,slide,pencil,beans,pencil,slide,beans,fem_plain_mal_sws,critical,1/11/2017,11:05,top_img,true,2234,2,2_1_1_0,word_2_word_1_word_3,different,pencil,English_Speech,preschool,megan,,,,,,,,,male
FMRNW,14,15,fem_plain,mal_sws,3,slide,pencil,beans,pencil,slide,beans,fem_plain_mal_sws,critical,1/11/2017,11:05,right,true,3404,2,2_1_1_0,word_2_word_1_word_3,different,beans,English_Speech,preschool,megan,,,,,,,,,male
FMRNW,15,3,fem_plain,mal_sws,1,telephone,trousers,trousers,trousers,telephone,nose,fem_plain_mal_sws,critical,1/11/2017,11:05,left,true,10790,2,1_2_2_1,word_1_word_3_word_2,near,telephone,English_Speech,preschool,megan,,,,,,,,,male
FMRNW,15,3,fem_plain,mal_sws,2,telephone,trousers,trousers,trousers,telephone,nose,fem_plain_mal_sws,critical,1/11/2017,11:05,top_img,true,2604,2,1_2_2_1,word_1_word_3_word_2,near,trousers,English_Speech,preschool,megan,,,,,,,,,male
FMRNW,15,3,fem_plain,mal_sws,3,telephone,trousers,trousers,trousers,telephone,nose,fem_plain_mal_sws,critical,1/11/2017,11:05,top_img,true,12493,4,1_2_2_1,word_1_word_3_word_2,near,trousers,English_Speech,preschool,megan,,,,,,,,,male
FMRNW,16,16,fem_plain,mal_sws,1,banana,chair,banana,chair,banana,paintbrush,fem_plain_mal_sws,critical,1/11/2017,11:05,left,true,4815,4,1_2_1_1,word_3_word_2_word_1,far,banana,English_Speech,preschool,megan,,,,,,,,,male
FMRNW,16,16,fem_plain,mal_sws,2,banana,chair,banana,chair,banana,paintbrush,fem_plain_mal_sws,critical,1/11/2017,11:05,top_img,true,3030,1,1_2_1_1,word_3_word_2_word_1,far,chair,English_Speech,preschool,megan,,,,,,,,,male
FMRNW,16,16,fem_plain,mal_sws,3,banana,chair,banana,chair,banana,paintbrush,fem_plain_mal_sws,critical,1/11/2017,11:05,left,true,5140,2,1_2_1_1,word_3_word_2_word_1,far,banana,English_Speech,preschool,megan,,,,,,,,,male
FMRNW,17,8,fem_plain,mal_sws,1,fire_engine,ear,wellyboots,fire_engine,ear,wellyboots,fem_plain_mal_sws,critical,1/11/2017,11:05,top_img,true,3847,2,2_1_1_0,word_2_word_3_word_1,different,fire_engine,English_Speech,preschool,megan,,,,,,,,,male
FMRNW,17,8,fem_plain,mal_sws,2,fire_engine,ear,wellyboots,fire_engine,ear,wellyboots,fem_plain_mal_sws,critical,1/11/2017,11:05,left,true,2369,1,2_1_1_0,word_2_word_3_word_1,different,ear,English_Speech,preschool,megan,,,,,,,,,male
FMRNW,17,8,fem_plain,mal_sws,3,fire_engine,ear,wellyboots,fire_engine,ear,wellyboots,fem_plain_mal_sws,critical,1/11/2017,11:05,top_img,false,6554,3,2_1_1_0,word_2_word_3_word_1,different,fire_engine,English_Speech,preschool,megan,,,,,,,,,male
FMRNW,18,11,fem_plain,mal_sws,1,book,lorry,cow,book,cow,lorry,fem_plain_mal_sws,critical,1/11/2017,11:05,top_img,true,5941,2,2_1_1_0,word_1_word_3_word_2,different,book,English_Speech,preschool,megan,,,,,,,,,male
FMRNW,18,11,fem_plain,mal_sws,2,book,lorry,cow,book,cow,lorry,fem_plain_mal_sws,critical,1/11/2017,11:05,right,true,2777,1,2_1_1_0,word_1_word_3_word_2,different,lorry,English_Speech,preschool,megan,,,,,,,,,male
FMRNW,18,11,fem_plain,mal_sws,3,book,lorry,cow,book,cow,lorry,fem_plain_mal_sws,critical,1/11/2017,11:05,left,true,2838,4,2_1_1_0,word_1_word_3_word_2,different,cow,English_Speech,preschool,megan,,,,,,,,,male
FMRNW,19,5,fem_plain,mal_sws,1,orange,mouth,car,car,mouth,orange,fem_plain_mal_sws,critical,1/11/2017,11:05,right,true,3576,6,2_1_1_0,word_2_word_3_word_1,different,orange,English_Speech,preschool,megan,,,,,,,,,male
FMRNW,19,5,fem_plain,mal_sws,2,orange,mouth,car,car,mouth,orange,fem_plain_mal_sws,critical,1/11/2017,11:05,left,true,10806,2,2_1_1_0,word_2_word_3_word_1,different,mouth,English_Speech,preschool,megan,,,,,,,,,male
FMRNW,19,5,fem_plain,mal_sws,3,orange,mouth,car,car,mouth,orange,fem_plain_mal_sws,critical,1/11/2017,11:05,top_img,true,5213,1,2_1_1_0,word_2_word_3_word_1,different,car,English_Speech,preschool,megan,,,,,,,,,male
FMRNW,20,21,fem_plain,mal_sws,1,eye,sheep,eye,sheep,eye,frog,fem_plain_mal_sws,critical,1/11/2017,11:05,left,true,2992,1,2_1_2_1,word_2_word_3_word_1,far,eye,English_Speech,preschool,megan,,,,,,,,,male
FMRNW,20,21,fem_plain,mal_sws,2,eye,sheep,eye,sheep,eye,frog,fem_plain_mal_sws,critical,1/11/2017,11:05,top_img,true,7800,1,2_1_2_1,word_2_word_3_word_1,far,sheep,English_Speech,preschool,megan,,,,,,,,,male
FMRNW,20,21,fem_plain,mal_sws,3,eye,sheep,eye,sheep,eye,frog,fem_plain_mal_sws,critical,1/11/2017,11:05,left,true,5301,2,2_1_2_1,word_2_word_3_word_1,far,eye,English_Speech,preschool,megan,,,,,,,,,male
FMRNW,21,20,fem_plain,mal_sws,1,rabbit,apple,apple,jumper,apple,rabbit,fem_plain_mal_sws,critical,1/11/2017,11:05,right,true,2681,5,2_1_1_1,word_1_word_3_word_2,near,rabbit,English_Speech,preschool,megan,,,,,,,,,male
FMRNW,21,20,fem_plain,mal_sws,2,rabbit,apple,apple,jumper,apple,rabbit,fem_plain_mal_sws,critical,1/11/2017,11:05,left,true,2260,4,2_1_1_1,word_1_word_3_word_2,near,apple,English_Speech,preschool,megan,,,,,,,,,male
FMRNW,21,20,fem_plain,mal_sws,3,rabbit,apple,apple,jumper,apple,rabbit,fem_plain_mal_sws,critical,1/11/2017,11:05,left,true,3010,1,2_1_1_1,word_1_word_3_word_2,near,apple,English_Speech,preschool,megan,,,,,,,,,male
FMRNW,22,19,fem_plain,mal_sws,1,santa,building_blocks,building_blocks,tree,building_blocks,santa,fem_plain_mal_sws,critical,1/11/2017,11:05,right,true,3203,2,2_1_1_1,word_3_word_2_word_1,near,santa,English_Speech,preschool,megan,,,,,,,,,male
FMRNW,22,19,fem_plain,mal_sws,2,santa,building_blocks,building_blocks,tree,building_blocks,santa,fem_plain_mal_sws,critical,1/11/2017,11:05,left,true,4057,2,2_1_1_1,word_3_word_2_word_1,near,building_blocks,English_Speech,preschool,megan,,,,,,,,,male
FMRNW,22,19,fem_plain,mal_sws,3,santa,building_blocks,building_blocks,tree,building_blocks,santa,fem_plain_mal_sws,critical,1/11/2017,11:05,left,true,4824,2,2_1_1_1,word_3_word_2_word_1,near,building_blocks,English_Speech,preschool,megan,,,,,,,,,male
FMRNW,23,10,fem_plain,mal_sws,1,hat,tshirt,pig,hat,pig,tshirt,fem_plain_mal_sws,critical,1/11/2017,11:05,top_img,true,2433,2,1_2_2_0,word_3_word_1_word_2,different,hat,English_Speech,preschool,megan,,,,,,,,,male
FMRNW,23,10,fem_plain,mal_sws,2,hat,tshirt,pig,hat,pig,tshirt,fem_plain_mal_sws,critical,1/11/2017,11:05,right,true,3583,1,1_2_2_0,word_3_word_1_word_2,different,tshirt,English_Speech,preschool,megan,,,,,,,,,male
FMRNW,23,10,fem_plain,mal_sws,3,hat,tshirt,pig,hat,pig,tshirt,fem_plain_mal_sws,critical,1/11/2017,11:05,left,true,4095,2,1_2_2_0,word_3_word_1_word_2,different,pig,English_Speech,preschool,megan,,,,,,,,,male
FMRNW,24,14,fem_plain,mal_sws,1,cheese,shoes,door,cheese,shoes,door,fem_plain_mal_sws,critical,1/11/2017,11:05,top_img,true,2637,2,2_1_2_0,word_1_word_2_word_3,different,cheese,English_Speech,preschool,megan,,,,,,,,,male
FMRNW,24,14,fem_plain,mal_sws,2,cheese,shoes,door,cheese,shoes,door,fem_plain_mal_sws,critical,1/11/2017,11:05,left,true,4087,2,2_1_2_0,word_1_word_2_word_3,different,shoes,English_Speech,preschool,megan,,,,,,,,,male
FMRNW,24,14,fem_plain,mal_sws,3,cheese,shoes,door,cheese,shoes,door,fem_plain_mal_sws,critical,1/11/2017,11:05,top_img,false,23,6,2_1_2_0,word_1_word_2_word_3,different,cheese,English_Speech,preschool,megan,,,,,,,,,male
FMRNW,25,1,fem_plain,mal_sws,1,spoon,train,spoon,baby,spoon,train,fem_plain_mal_sws,critical,1/11/2017,11:05,left,true,2842,4,1_2_1_1,word_2_word_1_word_3,far,spoon,English_Speech,preschool,megan,,,,,,,,,male
FMRNW,25,1,fem_plain,mal_sws,2,spoon,train,spoon,baby,spoon,train,fem_plain_mal_sws,critical,1/11/2017,11:05,right,true,2520,2,1_2_1_1,word_2_word_1_word_3,far,train,English_Speech,preschool,megan,,,,,,,,,male
FMRNW,25,1,fem_plain,mal_sws,3,spoon,train,spoon,baby,spoon,train,fem_plain_mal_sws,critical,1/11/2017,11:05,top_img,false,846,4,1_2_1_1,word_2_word_1_word_3,far,baby,English_Speech,preschool,megan,,,,,,,,,male
