subject_id,trial_number,trial_id,plain,sws,instruction_number,sound1_item,sound2_item,sound3_item,top_image,left_image,right_image,sound_gender,trial_type,date_stamp,time_stamp,side_chosen,accuracy,rt,play_counter,order,pic_position,distance,chosen_pic,test_lang,testing_loc,tester,date_of_birth,ethnicity,native_lang,other_langs,parental_occ,dev_info,birth_order,num_siblings,gender
iyrJo,1,0,mal_plain,mal_sws,1,glasses,fireman,tractor,fireman,tractor,glasses,mal_plain_mal_sws,training,1/11/2017,10:26,right,true,4031,5,2_1_1_0,word_1_word_3_word_2,different,glasses,English_Speech,preschool,megan,,,,,,,,,male
iyrJo,1,0,mal_plain,mal_sws,2,glasses,fireman,tractor,fireman,tractor,glasses,mal_plain_mal_sws,training,1/11/2017,10:26,top_img,true,2367,2,2_1_1_0,word_1_word_3_word_2,different,fireman,English_Speech,preschool,megan,,,,,,,,,male
iyrJo,1,0,mal_plain,mal_sws,3,glasses,fireman,tractor,fireman,tractor,glasses,mal_plain_mal_sws,training,1/11/2017,10:26,left,true,6535,4,2_1_1_0,word_1_word_3_word_2,different,tractor,English_Speech,preschool,megan,,,,,,,,,male
iyrJo,2,6,mal_plain,mal_sws,1,bird,peas,carrot,bird,peas,carrot,mal_plain_mal_sws,critical,1/11/2017,10:26,top_img,true,2120,2,2_1_1_0,word_1_word_2_word_3,different,bird,English_Speech,preschool,megan,,,,,,,,,male
iyrJo,2,6,mal_plain,mal_sws,2,bird,peas,carrot,bird,peas,carrot,mal_plain_mal_sws,critical,1/11/2017,10:26,left,true,2237,2,2_1_1_0,word_1_word_2_word_3,different,peas,English_Speech,preschool,megan,,,,,,,,,male
iyrJo,2,6,mal_plain,mal_sws,3,bird,peas,carrot,bird,peas,carrot,mal_plain_mal_sws,critical,1/11/2017,10:26,right,true,5307,2,2_1_1_0,word_1_word_2_word_3,different,carrot,English_Speech,preschool,megan,,,,,,,,,male
iyrJo,3,9,mal_plain,mal_sws,1,window,pizza,grapes,window,pizza,grapes,mal_plain_mal_sws,critical,1/11/2017,10:26,top_img,true,2430,2,2_1_1_0,word_2_word_1_word_3,different,window,English_Speech,preschool,megan,,,,,,,,,male
iyrJo,3,9,mal_plain,mal_sws,2,window,pizza,grapes,window,pizza,grapes,mal_plain_mal_sws,critical,1/11/2017,10:26,left,true,2296,2,2_1_1_0,word_2_word_1_word_3,different,pizza,English_Speech,preschool,megan,,,,,,,,,male
iyrJo,3,9,mal_plain,mal_sws,3,window,pizza,grapes,window,pizza,grapes,mal_plain_mal_sws,critical,1/11/2017,10:26,right,true,3839,2,2_1_1_0,word_2_word_1_word_3,different,grapes,English_Speech,preschool,megan,,,,,,,,,male
iyrJo,4,15,mal_plain,mal_sws,1,slide,pencil,pencil,beans,slide,pencil,mal_plain_mal_sws,critical,1/11/2017,10:26,left,true,2894,2,2_1_1_1,word_3_word_1_word_2,near,slide,English_Speech,preschool,megan,,,,,,,,,male
iyrJo,4,15,mal_plain,mal_sws,2,slide,pencil,pencil,beans,slide,pencil,mal_plain_mal_sws,critical,1/11/2017,10:26,right,true,2094,1,2_1_1_1,word_3_word_1_word_2,near,pencil,English_Speech,preschool,megan,,,,,,,,,male
iyrJo,4,15,mal_plain,mal_sws,3,slide,pencil,pencil,beans,slide,pencil,mal_plain_mal_sws,critical,1/11/2017,10:26,top_img,false,3006,2,2_1_1_1,word_3_word_1_word_2,near,beans,English_Speech,preschool,megan,,,,,,,,,male
iyrJo,5,23,mal_plain,mal_sws,1,table,teddy_bear,bath,table,bath,teddy_bear,mal_plain_mal_sws,critical,1/11/2017,10:26,top_img,true,2289,2,2_1_1_0,word_3_word_1_word_2,different,table,English_Speech,preschool,megan,,,,,,,,,male
iyrJo,5,23,mal_plain,mal_sws,2,table,teddy_bear,bath,table,bath,teddy_bear,mal_plain_mal_sws,critical,1/11/2017,10:26,right,true,2078,2,2_1_1_0,word_3_word_1_word_2,different,teddy_bear,English_Speech,preschool,megan,,,,,,,,,male
iyrJo,5,23,mal_plain,mal_sws,3,table,teddy_bear,bath,table,bath,teddy_bear,mal_plain_mal_sws,critical,1/11/2017,10:26,left,true,3096,2,2_1_1_0,word_3_word_1_word_2,different,bath,English_Speech,preschool,megan,,,,,,,,,male
iyrJo,6,22,mal_plain,mal_sws,1,bike,dog,doctor,dog,bike,doctor,mal_plain_mal_sws,critical,1/11/2017,10:26,left,true,2941,2,2_1_1_0,word_2_word_1_word_3,different,bike,English_Speech,preschool,megan,,,,,,,,,male
iyrJo,6,22,mal_plain,mal_sws,2,bike,dog,doctor,dog,bike,doctor,mal_plain_mal_sws,critical,1/11/2017,10:26,top_img,true,2037,2,2_1_1_0,word_2_word_1_word_3,different,dog,English_Speech,preschool,megan,,,,,,,,,male
iyrJo,6,22,mal_plain,mal_sws,3,bike,dog,doctor,dog,bike,doctor,mal_plain_mal_sws,critical,1/11/2017,10:26,right,true,2625,2,2_1_1_0,word_2_word_1_word_3,different,doctor,English_Speech,preschool,megan,,,,,,,,,male
iyrJo,7,24,mal_plain,mal_sws,1,socks,fish,socks,socks,sink,fish,mal_plain_mal_sws,critical,1/11/2017,10:26,top_img,true,2853,2,1_2_1_1,word_3_word_1_word_2,far,socks,English_Speech,preschool,megan,,,,,,,,,male
iyrJo,7,24,mal_plain,mal_sws,2,socks,fish,socks,socks,sink,fish,mal_plain_mal_sws,critical,1/11/2017,10:26,right,true,2248,2,1_2_1_1,word_3_word_1_word_2,far,fish,English_Speech,preschool,megan,,,,,,,,,male
iyrJo,7,24,mal_plain,mal_sws,3,socks,fish,socks,socks,sink,fish,mal_plain_mal_sws,critical,1/11/2017,10:26,left,false,2260,2,1_2_1_1,word_3_word_1_word_2,far,sink,English_Speech,preschool,megan,,,,,,,,,male
iyrJo,8,5,mal_plain,mal_sws,1,mouth,car,orange,mouth,car,orange,mal_plain_mal_sws,critical,1/11/2017,10:26,top_img,true,2512,2,2_1_2_0,word_3_word_2_word_1,different,mouth,English_Speech,preschool,megan,,,,,,,,,male
iyrJo,8,5,mal_plain,mal_sws,2,mouth,car,orange,mouth,car,orange,mal_plain_mal_sws,critical,1/11/2017,10:26,left,true,2246,1,2_1_2_0,word_3_word_2_word_1,different,car,English_Speech,preschool,megan,,,,,,,,,male
iyrJo,8,5,mal_plain,mal_sws,3,mouth,car,orange,mouth,car,orange,mal_plain_mal_sws,critical,1/11/2017,10:26,right,true,3693,2,2_1_2_0,word_3_word_2_word_1,different,orange,English_Speech,preschool,megan,,,,,,,,,male
iyrJo,9,8,mal_plain,mal_sws,1,ear,fire_engine,fire_engine,ear,wellyboots,fire_engine,mal_plain_mal_sws,critical,1/11/2017,10:26,top_img,true,2028,2,2_1_1_1,word_3_word_1_word_2,near,ear,English_Speech,preschool,megan,,,,,,,,,male
iyrJo,9,8,mal_plain,mal_sws,2,ear,fire_engine,fire_engine,ear,wellyboots,fire_engine,mal_plain_mal_sws,critical,1/11/2017,10:26,right,true,2925,1,2_1_1_1,word_3_word_1_word_2,near,fire_engine,English_Speech,preschool,megan,,,,,,,,,male
iyrJo,9,8,mal_plain,mal_sws,3,ear,fire_engine,fire_engine,ear,wellyboots,fire_engine,mal_plain_mal_sws,critical,1/11/2017,10:26,left,false,2733,2,2_1_1_1,word_3_word_1_word_2,near,wellyboots,English_Speech,preschool,megan,,,,,,,,,male
iyrJo,10,11,mal_plain,mal_sws,1,book,lorry,cow,lorry,book,cow,mal_plain_mal_sws,critical,1/11/2017,10:26,left,true,5160,2,2_1_2_0,word_2_word_1_word_3,different,book,English_Speech,preschool,megan,,,,,,,,,male
iyrJo,10,11,mal_plain,mal_sws,2,book,lorry,cow,lorry,book,cow,mal_plain_mal_sws,critical,1/11/2017,10:26,top_img,true,2494,2,2_1_2_0,word_2_word_1_word_3,different,lorry,English_Speech,preschool,megan,,,,,,,,,male
iyrJo,10,11,mal_plain,mal_sws,3,book,lorry,cow,lorry,book,cow,mal_plain_mal_sws,critical,1/11/2017,10:26,right,true,2563,2,2_1_2_0,word_2_word_1_word_3,different,cow,English_Speech,preschool,megan,,,,,,,,,male
iyrJo,11,3,mal_plain,mal_sws,1,nose,trousers,telephone,telephone,nose,trousers,mal_plain_mal_sws,critical,1/11/2017,10:26,left,true,4162,1,1_2_2_0,word_3_word_2_word_1,different,nose,English_Speech,preschool,megan,,,,,,,,,male
iyrJo,11,3,mal_plain,mal_sws,2,nose,trousers,telephone,telephone,nose,trousers,mal_plain_mal_sws,critical,1/11/2017,10:26,right,true,2501,1,1_2_2_0,word_3_word_2_word_1,different,trousers,English_Speech,preschool,megan,,,,,,,,,male
iyrJo,11,3,mal_plain,mal_sws,3,nose,trousers,telephone,telephone,nose,trousers,mal_plain_mal_sws,critical,1/11/2017,10:26,top_img,true,1737,2,1_2_2_0,word_3_word_2_word_1,different,telephone,English_Speech,preschool,megan,,,,,,,,,male
iyrJo,12,10,mal_plain,mal_sws,1,pig,hat,tshirt,pig,hat,tshirt,mal_plain_mal_sws,critical,1/11/2017,10:26,top_img,true,2478,1,1_2_2_0,word_1_word_3_word_2,different,pig,English_Speech,preschool,megan,,,,,,,,,male
iyrJo,12,10,mal_plain,mal_sws,2,pig,hat,tshirt,pig,hat,tshirt,mal_plain_mal_sws,critical,1/11/2017,10:26,left,true,2281,1,1_2_2_0,word_1_word_3_word_2,different,hat,English_Speech,preschool,megan,,,,,,,,,male
iyrJo,12,10,mal_plain,mal_sws,3,pig,hat,tshirt,pig,hat,tshirt,mal_plain_mal_sws,critical,1/11/2017,10:26,right,true,4109,2,1_2_2_0,word_1_word_3_word_2,different,tshirt,English_Speech,preschool,megan,,,,,,,,,male
iyrJo,13,2,mal_plain,mal_sws,1,chicken,fork,bed,bed,chicken,fork,mal_plain_mal_sws,critical,1/11/2017,10:26,left,true,3055,1,2_1_1_0,word_1_word_2_word_3,different,chicken,English_Speech,preschool,megan,,,,,,,,,male
iyrJo,13,2,mal_plain,mal_sws,2,chicken,fork,bed,bed,chicken,fork,mal_plain_mal_sws,critical,1/11/2017,10:26,right,true,2405,1,2_1_1_0,word_1_word_2_word_3,different,fork,English_Speech,preschool,megan,,,,,,,,,male
iyrJo,13,2,mal_plain,mal_sws,3,chicken,fork,bed,bed,chicken,fork,mal_plain_mal_sws,critical,1/11/2017,10:26,top_img,true,3664,2,2_1_1_0,word_1_word_2_word_3,different,bed,English_Speech,preschool,megan,,,,,,,,,male
iyrJo,14,18,mal_plain,mal_sws,1,raspberry,ball,ball,ball,raspberry,camera,mal_plain_mal_sws,critical,1/11/2017,10:26,left,true,3110,2,1_2_2_1,word_1_word_2_word_3,near,raspberry,English_Speech,preschool,megan,,,,,,,,,male
iyrJo,14,18,mal_plain,mal_sws,2,raspberry,ball,ball,ball,raspberry,camera,mal_plain_mal_sws,critical,1/11/2017,10:26,top_img,true,2596,2,1_2_2_1,word_1_word_2_word_3,near,ball,English_Speech,preschool,megan,,,,,,,,,male
iyrJo,14,18,mal_plain,mal_sws,3,raspberry,ball,ball,ball,raspberry,camera,mal_plain_mal_sws,critical,1/11/2017,10:26,right,false,3624,1,1_2_2_1,word_1_word_2_word_3,near,camera,English_Speech,preschool,megan,,,,,,,,,male
iyrJo,15,17,mal_plain,mal_sws,1,hand,ambulance,hand,hand,ambulance,cake,mal_plain_mal_sws,critical,1/11/2017,10:26,top_img,true,2681,1,2_1_2_1,word_3_word_2_word_1,far,hand,English_Speech,preschool,megan,,,,,,,,,male
iyrJo,15,17,mal_plain,mal_sws,2,hand,ambulance,hand,hand,ambulance,cake,mal_plain_mal_sws,critical,1/11/2017,10:26,left,true,2400,2,2_1_2_1,word_3_word_2_word_1,far,ambulance,English_Speech,preschool,megan,,,,,,,,,male
iyrJo,15,17,mal_plain,mal_sws,3,hand,ambulance,hand,hand,ambulance,cake,mal_plain_mal_sws,critical,1/11/2017,10:26,right,false,2532,2,2_1_2_1,word_3_word_2_word_1,far,cake,English_Speech,preschool,megan,,,,,,,,,male
iyrJo,16,1,mal_plain,mal_sws,1,baby,spoon,baby,spoon,baby,train,mal_plain_mal_sws,critical,1/11/2017,10:26,left,true,2313,2,2_1_2_1,word_1_word_2_word_3,far,baby,English_Speech,preschool,megan,,,,,,,,,male
iyrJo,16,1,mal_plain,mal_sws,2,baby,spoon,baby,spoon,baby,train,mal_plain_mal_sws,critical,1/11/2017,10:26,top_img,true,2051,2,2_1_2_1,word_1_word_2_word_3,far,spoon,English_Speech,preschool,megan,,,,,,,,,male
iyrJo,16,1,mal_plain,mal_sws,3,baby,spoon,baby,spoon,baby,train,mal_plain_mal_sws,critical,1/11/2017,10:26,right,false,1730,2,2_1_2_1,word_1_word_2_word_3,far,train,English_Speech,preschool,megan,,,,,,,,,male
iyrJo,17,13,mal_plain,mal_sws,1,airplane,toothbrush,toothbrush,toothbrush,airplane,bread,mal_plain_mal_sws,critical,1/11/2017,10:26,left,true,2243,4,1_2_2_1,word_1_word_2_word_3,near,airplane,English_Speech,preschool,megan,,,,,,,,,male
iyrJo,17,13,mal_plain,mal_sws,2,airplane,toothbrush,toothbrush,toothbrush,airplane,bread,mal_plain_mal_sws,critical,1/11/2017,10:26,top_img,true,2097,1,1_2_2_1,word_1_word_2_word_3,near,toothbrush,English_Speech,preschool,megan,,,,,,,,,male
iyrJo,17,13,mal_plain,mal_sws,3,airplane,toothbrush,toothbrush,toothbrush,airplane,bread,mal_plain_mal_sws,critical,1/11/2017,10:26,right,false,1410,2,1_2_2_1,word_1_word_2_word_3,near,bread,English_Speech,preschool,megan,,,,,,,,,male
iyrJo,18,14,mal_plain,mal_sws,1,cheese,door,cheese,cheese,shoes,door,mal_plain_mal_sws,critical,1/11/2017,10:26,top_img,true,2624,1,1_2_1_1,word_1_word_2_word_3,far,cheese,English_Speech,preschool,megan,,,,,,,,,male
iyrJo,18,14,mal_plain,mal_sws,2,cheese,door,cheese,cheese,shoes,door,mal_plain_mal_sws,critical,1/11/2017,10:26,right,true,2217,1,1_2_1_1,word_1_word_2_word_3,far,door,English_Speech,preschool,megan,,,,,,,,,male
iyrJo,18,14,mal_plain,mal_sws,3,cheese,door,cheese,cheese,shoes,door,mal_plain_mal_sws,critical,1/11/2017,10:26,left,false,2205,2,1_2_1_1,word_1_word_2_word_3,far,shoes,English_Speech,preschool,megan,,,,,,,,,male
iyrJo,19,12,mal_plain,mal_sws,1,yoghurt,foot,gloves,gloves,yoghurt,foot,mal_plain_mal_sws,critical,1/11/2017,10:26,left,true,2525,2,2_1_2_0,word_3_word_2_word_1,different,yoghurt,English_Speech,preschool,megan,,,,,,,,,male
iyrJo,19,12,mal_plain,mal_sws,2,yoghurt,foot,gloves,gloves,yoghurt,foot,mal_plain_mal_sws,critical,1/11/2017,10:26,right,true,2121,3,2_1_2_0,word_3_word_2_word_1,different,foot,English_Speech,preschool,megan,,,,,,,,,male
iyrJo,19,12,mal_plain,mal_sws,3,yoghurt,foot,gloves,gloves,yoghurt,foot,mal_plain_mal_sws,critical,1/11/2017,10:26,top_img,true,1283,2,2_1_2_0,word_3_word_2_word_1,different,gloves,English_Speech,preschool,megan,,,,,,,,,male
iyrJo,20,19,mal_plain,mal_sws,1,tree,santa,building_blocks,tree,santa,building_blocks,mal_plain_mal_sws,critical,1/11/2017,10:26,top_img,true,2786,2,1_2_2_0,word_3_word_1_word_2,different,tree,English_Speech,preschool,megan,,,,,,,,,male
iyrJo,20,19,mal_plain,mal_sws,2,tree,santa,building_blocks,tree,santa,building_blocks,mal_plain_mal_sws,critical,1/11/2017,10:26,left,true,2699,2,1_2_2_0,word_3_word_1_word_2,different,santa,English_Speech,preschool,megan,,,,,,,,,male
iyrJo,20,19,mal_plain,mal_sws,3,tree,santa,building_blocks,tree,santa,building_blocks,mal_plain_mal_sws,critical,1/11/2017,10:26,right,true,1639,2,1_2_2_0,word_3_word_1_word_2,different,building_blocks,English_Speech,preschool,megan,,,,,,,,,male
iyrJo,21,16,mal_plain,mal_sws,1,banana,paintbrush,paintbrush,banana,paintbrush,chair,mal_plain_mal_sws,critical,1/11/2017,10:26,top_img,true,2280,2,1_2_2_1,word_2_word_1_word_3,near,banana,English_Speech,preschool,megan,,,,,,,,,male
iyrJo,21,16,mal_plain,mal_sws,2,banana,paintbrush,paintbrush,banana,paintbrush,chair,mal_plain_mal_sws,critical,1/11/2017,10:26,left,true,2788,2,1_2_2_1,word_2_word_1_word_3,near,paintbrush,English_Speech,preschool,megan,,,,,,,,,male
iyrJo,21,16,mal_plain,mal_sws,3,banana,paintbrush,paintbrush,banana,paintbrush,chair,mal_plain_mal_sws,critical,1/11/2017,10:26,right,false,1862,1,1_2_2_1,word_2_word_1_word_3,near,chair,English_Speech,preschool,megan,,,,,,,,,male
iyrJo,22,20,mal_plain,mal_sws,1,apple,rabbit,apple,apple,rabbit,jumper,mal_plain_mal_sws,critical,1/11/2017,10:26,top_img,true,2294,2,1_2_1_1,word_3_word_2_word_1,far,apple,English_Speech,preschool,megan,,,,,,,,,male
iyrJo,22,20,mal_plain,mal_sws,2,apple,rabbit,apple,apple,rabbit,jumper,mal_plain_mal_sws,critical,1/11/2017,10:26,left,true,1941,1,1_2_1_1,word_3_word_2_word_1,far,rabbit,English_Speech,preschool,megan,,,,,,,,,male
iyrJo,22,20,mal_plain,mal_sws,3,apple,rabbit,apple,apple,rabbit,jumper,mal_plain_mal_sws,critical,1/11/2017,10:26,right,false,1980,3,1_2_1_1,word_3_word_2_word_1,far,jumper,English_Speech,preschool,megan,,,,,,,,,male
iyrJo,23,21,mal_plain,mal_sws,1,eye,sheep,eye,frog,eye,sheep,mal_plain_mal_sws,critical,1/11/2017,10:26,left,true,4172,2,2_1_2_1,word_1_word_3_word_2,far,eye,English_Speech,preschool,megan,,,,,,,,,male
iyrJo,23,21,mal_plain,mal_sws,2,eye,sheep,eye,frog,eye,sheep,mal_plain_mal_sws,critical,1/11/2017,10:26,top_img,false,3834,2,2_1_2_1,word_1_word_3_word_2,far,frog,English_Speech,preschool,megan,,,,,,,,,male
iyrJo,23,21,mal_plain,mal_sws,3,eye,sheep,eye,frog,eye,sheep,mal_plain_mal_sws,critical,1/11/2017,10:26,right,false,2113,2,2_1_2_1,word_1_word_3_word_2,far,sheep,English_Speech,preschool,megan,,,,,,,,,male
iyrJo,24,4,mal_plain,mal_sws,1,coat,flower,flower,strawberry,flower,coat,mal_plain_mal_sws,critical,1/11/2017,10:26,right,true,2339,2,2_1_1_1,word_2_word_3_word_1,near,coat,English_Speech,preschool,megan,,,,,,,,,male
iyrJo,24,4,mal_plain,mal_sws,2,coat,flower,flower,strawberry,flower,coat,mal_plain_mal_sws,critical,1/11/2017,10:26,top_img,false,1909,2,2_1_1_1,word_2_word_3_word_1,near,strawberry,English_Speech,preschool,megan,,,,,,,,,male
iyrJo,24,4,mal_plain,mal_sws,3,coat,flower,flower,strawberry,flower,coat,mal_plain_mal_sws,critical,1/11/2017,10:26,left,true,1477,1,2_1_1_1,word_2_word_3_word_1,near,flower,English_Speech,preschool,megan,,,,,,,,,male
iyrJo,25,7,mal_plain,mal_sws,1,cat,lolly,cat,lolly,horse,cat,mal_plain_mal_sws,critical,1/11/2017,10:26,right,true,3497,2,1_2_1_1,word_1_word_2_word_3,far,cat,English_Speech,preschool,megan,,,,,,,,,male
iyrJo,25,7,mal_plain,mal_sws,2,cat,lolly,cat,lolly,horse,cat,mal_plain_mal_sws,critical,1/11/2017,10:26,top_img,true,2736,1,1_2_1_1,word_1_word_2_word_3,far,lolly,English_Speech,preschool,megan,,,,,,,,,male
iyrJo,25,7,mal_plain,mal_sws,3,cat,lolly,cat,lolly,horse,cat,mal_plain_mal_sws,critical,1/11/2017,10:26,left,false,3331,1,1_2_1_1,word_1_word_2_word_3,far,horse,English_Speech,preschool,megan,,,,,,,,,male
