subject_id,trial_number,trial_id,plain,sws,instruction_number,sound1_item,sound2_item,sound3_item,top_image,left_image,right_image,sound_gender,trial_type,date_stamp,time_stamp,side_chosen,accuracy,rt,play_counter,order,pic_position,distance,chosen_pic,test_lang,testing_loc,tester,date_of_birth,ethnicity,native_lang,other_langs,parental_occ,dev_info,birth_order,num_siblings,gender
jMSWa,1,0,mal_plain,fem_sws,1,fireman,glasses,fireman,fireman,tractor,glasses,mal_plain_fem_sws,training,2/1/2017,9:14,top_img,true,12571,1,1_2_1_1,word_1_word_3_word_2,far,fireman,English_Speech,preschool,katy,,,,,,,,,male
jMSWa,1,0,mal_plain,fem_sws,2,fireman,glasses,fireman,fireman,tractor,glasses,mal_plain_fem_sws,training,2/1/2017,9:14,right,true,2399,2,1_2_1_1,word_1_word_3_word_2,far,glasses,English_Speech,preschool,katy,,,,,,,,,male
jMSWa,1,0,mal_plain,fem_sws,3,fireman,glasses,fireman,fireman,tractor,glasses,mal_plain_fem_sws,training,2/1/2017,9:14,top_img,true,7299,8,1_2_1_1,word_1_word_3_word_2,far,fireman,English_Speech,preschool,katy,,,,,,,,,male
jMSWa,2,19,mal_plain,fem_sws,1,building_blocks,santa,tree,tree,building_blocks,santa,mal_plain_fem_sws,critical,2/1/2017,9:14,left,true,3046,2,2_1_1_0,word_3_word_2_word_1,different,building_blocks,English_Speech,preschool,katy,,,,,,,,,male
jMSWa,2,19,mal_plain,fem_sws,2,building_blocks,santa,tree,tree,building_blocks,santa,mal_plain_fem_sws,critical,2/1/2017,9:14,right,true,2755,2,2_1_1_0,word_3_word_2_word_1,different,santa,English_Speech,preschool,katy,,,,,,,,,male
jMSWa,2,19,mal_plain,fem_sws,3,building_blocks,santa,tree,tree,building_blocks,santa,mal_plain_fem_sws,critical,2/1/2017,9:14,top_img,true,5100,2,2_1_1_0,word_3_word_2_word_1,different,tree,English_Speech,preschool,katy,,,,,,,,,male
jMSWa,3,12,mal_plain,fem_sws,1,gloves,foot,gloves,foot,gloves,yoghurt,mal_plain_fem_sws,critical,2/1/2017,9:14,left,true,2961,2,2_1_2_1,word_1_word_3_word_2,far,gloves,English_Speech,preschool,katy,,,,,,,,,male
jMSWa,3,12,mal_plain,fem_sws,2,gloves,foot,gloves,foot,gloves,yoghurt,mal_plain_fem_sws,critical,2/1/2017,9:14,top_img,true,2539,2,2_1_2_1,word_1_word_3_word_2,far,foot,English_Speech,preschool,katy,,,,,,,,,male
jMSWa,3,12,mal_plain,fem_sws,3,gloves,foot,gloves,foot,gloves,yoghurt,mal_plain_fem_sws,critical,2/1/2017,9:14,left,true,5187,2,2_1_2_1,word_1_word_3_word_2,far,gloves,English_Speech,preschool,katy,,,,,,,,,male
jMSWa,4,15,mal_plain,fem_sws,1,pencil,beans,slide,pencil,beans,slide,mal_plain_fem_sws,critical,2/1/2017,9:14,top_img,true,2597,2,2_1_1_0,word_2_word_3_word_1,different,pencil,English_Speech,preschool,katy,,,,,,,,,male
jMSWa,4,15,mal_plain,fem_sws,2,pencil,beans,slide,pencil,beans,slide,mal_plain_fem_sws,critical,2/1/2017,9:14,left,true,3125,4,2_1_1_0,word_2_word_3_word_1,different,beans,English_Speech,preschool,katy,,,,,,,,,male
jMSWa,4,15,mal_plain,fem_sws,3,pencil,beans,slide,pencil,beans,slide,mal_plain_fem_sws,critical,2/1/2017,9:14,right,true,2639,2,2_1_1_0,word_2_word_3_word_1,different,slide,English_Speech,preschool,katy,,,,,,,,,male
jMSWa,5,21,mal_plain,fem_sws,1,eye,sheep,eye,sheep,frog,eye,mal_plain_fem_sws,critical,2/1/2017,9:14,right,true,2928,2,1_2_1_1,word_2_word_1_word_3,far,eye,English_Speech,preschool,katy,,,,,,,,,male
jMSWa,5,21,mal_plain,fem_sws,2,eye,sheep,eye,sheep,frog,eye,mal_plain_fem_sws,critical,2/1/2017,9:14,top_img,true,5052,2,1_2_1_1,word_2_word_1_word_3,far,sheep,English_Speech,preschool,katy,,,,,,,,,male
jMSWa,5,21,mal_plain,fem_sws,3,eye,sheep,eye,sheep,frog,eye,mal_plain_fem_sws,critical,2/1/2017,9:14,left,false,4971,4,1_2_1_1,word_2_word_1_word_3,far,frog,English_Speech,preschool,katy,,,,,,,,,male
jMSWa,6,9,mal_plain,fem_sws,1,window,grapes,pizza,window,grapes,pizza,mal_plain_fem_sws,critical,2/1/2017,9:14,top_img,true,2559,2,2_1_1_0,word_2_word_3_word_1,different,window,English_Speech,preschool,katy,,,,,,,,,male
jMSWa,6,9,mal_plain,fem_sws,2,window,grapes,pizza,window,grapes,pizza,mal_plain_fem_sws,critical,2/1/2017,9:14,left,true,2597,4,2_1_1_0,word_2_word_3_word_1,different,grapes,English_Speech,preschool,katy,,,,,,,,,male
jMSWa,6,9,mal_plain,fem_sws,3,window,grapes,pizza,window,grapes,pizza,mal_plain_fem_sws,critical,2/1/2017,9:14,top_img,false,3729,2,2_1_1_0,word_2_word_3_word_1,different,window,English_Speech,preschool,katy,,,,,,,,,male
jMSWa,7,23,mal_plain,fem_sws,1,teddy_bear,table,bath,teddy_bear,bath,table,mal_plain_fem_sws,critical,2/1/2017,9:14,top_img,true,2803,2,2_1_1_0,word_2_word_1_word_3,different,teddy_bear,English_Speech,preschool,katy,,,,,,,,,male
jMSWa,7,23,mal_plain,fem_sws,2,teddy_bear,table,bath,teddy_bear,bath,table,mal_plain_fem_sws,critical,2/1/2017,9:14,right,true,3153,5,2_1_1_0,word_2_word_1_word_3,different,table,English_Speech,preschool,katy,,,,,,,,,male
jMSWa,7,23,mal_plain,fem_sws,3,teddy_bear,table,bath,teddy_bear,bath,table,mal_plain_fem_sws,critical,2/1/2017,9:14,left,true,3490,4,2_1_1_0,word_2_word_1_word_3,different,bath,English_Speech,preschool,katy,,,,,,,,,male
jMSWa,8,11,mal_plain,fem_sws,1,cow,book,cow,book,cow,lorry,mal_plain_fem_sws,critical,2/1/2017,9:14,left,true,4693,2,2_1_2_1,word_1_word_3_word_2,far,cow,English_Speech,preschool,katy,,,,,,,,,male
jMSWa,8,11,mal_plain,fem_sws,2,cow,book,cow,book,cow,lorry,mal_plain_fem_sws,critical,2/1/2017,9:14,top_img,true,3526,2,2_1_2_1,word_1_word_3_word_2,far,book,English_Speech,preschool,katy,,,,,,,,,male
jMSWa,8,11,mal_plain,fem_sws,3,cow,book,cow,book,cow,lorry,mal_plain_fem_sws,critical,2/1/2017,9:14,right,false,3081,2,2_1_2_1,word_1_word_3_word_2,far,lorry,English_Speech,preschool,katy,,,,,,,,,male
jMSWa,9,1,mal_plain,fem_sws,1,baby,spoon,train,spoon,baby,train,mal_plain_fem_sws,critical,2/1/2017,9:14,left,true,2098,2,1_2_2_0,word_1_word_2_word_3,different,baby,English_Speech,preschool,katy,,,,,,,,,male
jMSWa,9,1,mal_plain,fem_sws,2,baby,spoon,train,spoon,baby,train,mal_plain_fem_sws,critical,2/1/2017,9:14,top_img,true,2605,1,1_2_2_0,word_1_word_2_word_3,different,spoon,English_Speech,preschool,katy,,,,,,,,,male
jMSWa,9,1,mal_plain,fem_sws,3,baby,spoon,train,spoon,baby,train,mal_plain_fem_sws,critical,2/1/2017,9:14,right,true,4322,2,1_2_2_0,word_1_word_2_word_3,different,train,English_Speech,preschool,katy,,,,,,,,,male
jMSWa,10,22,mal_plain,fem_sws,1,dog,bike,doctor,dog,bike,doctor,mal_plain_fem_sws,critical,2/1/2017,9:14,top_img,true,2801,2,1_2_2_0,word_2_word_1_word_3,different,dog,English_Speech,preschool,katy,,,,,,,,,male
jMSWa,10,22,mal_plain,fem_sws,2,dog,bike,doctor,dog,bike,doctor,mal_plain_fem_sws,critical,2/1/2017,9:14,left,true,2839,2,1_2_2_0,word_2_word_1_word_3,different,bike,English_Speech,preschool,katy,,,,,,,,,male
jMSWa,10,22,mal_plain,fem_sws,3,dog,bike,doctor,dog,bike,doctor,mal_plain_fem_sws,critical,2/1/2017,9:14,right,true,2680,6,1_2_2_0,word_2_word_1_word_3,different,doctor,English_Speech,preschool,katy,,,,,,,,,male
jMSWa,11,18,mal_plain,fem_sws,1,camera,raspberry,ball,raspberry,ball,camera,mal_plain_fem_sws,critical,2/1/2017,9:14,right,true,2055,2,2_1_2_0,word_2_word_1_word_3,different,camera,English_Speech,preschool,katy,,,,,,,,,male
jMSWa,11,18,mal_plain,fem_sws,2,camera,raspberry,ball,raspberry,ball,camera,mal_plain_fem_sws,critical,2/1/2017,9:14,top_img,true,4867,4,2_1_2_0,word_2_word_1_word_3,different,raspberry,English_Speech,preschool,katy,,,,,,,,,male
jMSWa,11,18,mal_plain,fem_sws,3,camera,raspberry,ball,raspberry,ball,camera,mal_plain_fem_sws,critical,2/1/2017,9:14,left,true,3158,1,2_1_2_0,word_2_word_1_word_3,different,ball,English_Speech,preschool,katy,,,,,,,,,male
jMSWa,12,20,mal_plain,fem_sws,1,rabbit,apple,apple,jumper,apple,rabbit,mal_plain_fem_sws,critical,2/1/2017,9:14,right,true,2319,1,2_1_1_1,word_1_word_3_word_2,near,rabbit,English_Speech,preschool,katy,,,,,,,,,male
jMSWa,12,20,mal_plain,fem_sws,2,rabbit,apple,apple,jumper,apple,rabbit,mal_plain_fem_sws,critical,2/1/2017,9:14,left,true,3092,1,2_1_1_1,word_1_word_3_word_2,near,apple,English_Speech,preschool,katy,,,,,,,,,male
jMSWa,12,20,mal_plain,fem_sws,3,rabbit,apple,apple,jumper,apple,rabbit,mal_plain_fem_sws,critical,2/1/2017,9:14,right,false,2389,2,2_1_1_1,word_1_word_3_word_2,near,rabbit,English_Speech,preschool,katy,,,,,,,,,male
jMSWa,13,2,mal_plain,fem_sws,1,chicken,fork,bed,fork,bed,chicken,mal_plain_fem_sws,critical,2/1/2017,9:14,right,true,4216,2,2_1_2_0,word_3_word_1_word_2,different,chicken,English_Speech,preschool,katy,,,,,,,,,male
jMSWa,13,2,mal_plain,fem_sws,2,chicken,fork,bed,fork,bed,chicken,mal_plain_fem_sws,critical,2/1/2017,9:14,top_img,true,3563,1,2_1_2_0,word_3_word_1_word_2,different,fork,English_Speech,preschool,katy,,,,,,,,,male
jMSWa,13,2,mal_plain,fem_sws,3,chicken,fork,bed,fork,bed,chicken,mal_plain_fem_sws,critical,2/1/2017,9:14,left,true,2943,14,2_1_2_0,word_3_word_1_word_2,different,bed,English_Speech,preschool,katy,,,,,,,,,male
jMSWa,14,16,mal_plain,fem_sws,1,chair,banana,chair,paintbrush,banana,chair,mal_plain_fem_sws,critical,2/1/2017,9:14,right,true,4840,2,1_2_1_1,word_1_word_2_word_3,far,chair,English_Speech,preschool,katy,,,,,,,,,male
jMSWa,14,16,mal_plain,fem_sws,2,chair,banana,chair,paintbrush,banana,chair,mal_plain_fem_sws,critical,2/1/2017,9:14,left,true,2992,2,1_2_1_1,word_1_word_2_word_3,far,banana,English_Speech,preschool,katy,,,,,,,,,male
jMSWa,14,16,mal_plain,fem_sws,3,chair,banana,chair,paintbrush,banana,chair,mal_plain_fem_sws,critical,2/1/2017,9:14,top_img,false,4653,1,1_2_1_1,word_1_word_2_word_3,far,paintbrush,English_Speech,preschool,katy,,,,,,,,,male
jMSWa,15,4,mal_plain,fem_sws,1,flower,strawberry,strawberry,strawberry,coat,flower,mal_plain_fem_sws,critical,2/1/2017,9:14,top_img,false,11238,2,1_2_2_1,word_2_word_1_word_3,near,strawberry,English_Speech,preschool,katy,,,,,,,,,male
jMSWa,15,4,mal_plain,fem_sws,2,flower,strawberry,strawberry,strawberry,coat,flower,mal_plain_fem_sws,critical,2/1/2017,9:14,top_img,true,2396,2,1_2_2_1,word_2_word_1_word_3,near,strawberry,English_Speech,preschool,katy,,,,,,,,,male
jMSWa,15,4,mal_plain,fem_sws,3,flower,strawberry,strawberry,strawberry,coat,flower,mal_plain_fem_sws,critical,2/1/2017,9:14,top_img,true,4056,2,1_2_2_1,word_2_word_1_word_3,near,strawberry,English_Speech,preschool,katy,,,,,,,,,male
jMSWa,16,24,mal_plain,fem_sws,1,fish,socks,socks,fish,sink,socks,mal_plain_fem_sws,critical,2/1/2017,9:14,top_img,true,3043,2,1_2_2_1,word_2_word_1_word_3,near,fish,English_Speech,preschool,katy,,,,,,,,,male
jMSWa,16,24,mal_plain,fem_sws,2,fish,socks,socks,fish,sink,socks,mal_plain_fem_sws,critical,2/1/2017,9:14,right,true,4698,4,1_2_2_1,word_2_word_1_word_3,near,socks,English_Speech,preschool,katy,,,,,,,,,male
jMSWa,16,24,mal_plain,fem_sws,3,fish,socks,socks,fish,sink,socks,mal_plain_fem_sws,critical,2/1/2017,9:14,right,true,4862,2,1_2_2_1,word_2_word_1_word_3,near,socks,English_Speech,preschool,katy,,,,,,,,,male
jMSWa,17,7,mal_plain,fem_sws,1,lolly,cat,cat,horse,cat,lolly,mal_plain_fem_sws,critical,2/1/2017,9:14,right,true,3436,2,2_1_1_1,word_2_word_3_word_1,near,lolly,English_Speech,preschool,katy,,,,,,,,,male
jMSWa,17,7,mal_plain,fem_sws,2,lolly,cat,cat,horse,cat,lolly,mal_plain_fem_sws,critical,2/1/2017,9:14,left,true,2584,1,2_1_1_1,word_2_word_3_word_1,near,cat,English_Speech,preschool,katy,,,,,,,,,male
jMSWa,17,7,mal_plain,fem_sws,3,lolly,cat,cat,horse,cat,lolly,mal_plain_fem_sws,critical,2/1/2017,9:14,top_img,false,6072,2,2_1_1_1,word_2_word_3_word_1,near,horse,English_Speech,preschool,katy,,,,,,,,,male
jMSWa,18,17,mal_plain,fem_sws,1,hand,ambulance,ambulance,ambulance,cake,hand,mal_plain_fem_sws,critical,2/1/2017,9:14,right,true,3366,2,1_2_2_1,word_2_word_1_word_3,near,hand,English_Speech,preschool,katy,,,,,,,,,male
jMSWa,18,17,mal_plain,fem_sws,2,hand,ambulance,ambulance,ambulance,cake,hand,mal_plain_fem_sws,critical,2/1/2017,9:14,top_img,true,2343,1,1_2_2_1,word_2_word_1_word_3,near,ambulance,English_Speech,preschool,katy,,,,,,,,,male
jMSWa,18,17,mal_plain,fem_sws,3,hand,ambulance,ambulance,ambulance,cake,hand,mal_plain_fem_sws,critical,2/1/2017,9:14,left,false,3180,2,1_2_2_1,word_2_word_1_word_3,near,cake,English_Speech,preschool,katy,,,,,,,,,male
jMSWa,19,8,mal_plain,fem_sws,1,ear,wellyboots,fire_engine,wellyboots,fire_engine,ear,mal_plain_fem_sws,critical,2/1/2017,9:14,right,true,3887,2,2_1_1_0,word_1_word_2_word_3,different,ear,English_Speech,preschool,katy,,,,,,,,,male
jMSWa,19,8,mal_plain,fem_sws,2,ear,wellyboots,fire_engine,wellyboots,fire_engine,ear,mal_plain_fem_sws,critical,2/1/2017,9:14,top_img,true,2231,1,2_1_1_0,word_1_word_2_word_3,different,wellyboots,English_Speech,preschool,katy,,,,,,,,,male
jMSWa,19,8,mal_plain,fem_sws,3,ear,wellyboots,fire_engine,wellyboots,fire_engine,ear,mal_plain_fem_sws,critical,2/1/2017,9:14,left,true,3559,1,2_1_1_0,word_1_word_2_word_3,different,fire_engine,English_Speech,preschool,katy,,,,,,,,,male
jMSWa,20,5,mal_plain,fem_sws,1,car,orange,mouth,mouth,orange,car,mal_plain_fem_sws,critical,2/1/2017,9:14,right,true,2150,2,2_1_2_0,word_3_word_1_word_2,different,car,English_Speech,preschool,katy,,,,,,,,,male
jMSWa,20,5,mal_plain,fem_sws,2,car,orange,mouth,mouth,orange,car,mal_plain_fem_sws,critical,2/1/2017,9:14,left,true,7230,2,2_1_2_0,word_3_word_1_word_2,different,orange,English_Speech,preschool,katy,,,,,,,,,male
jMSWa,20,5,mal_plain,fem_sws,3,car,orange,mouth,mouth,orange,car,mal_plain_fem_sws,critical,2/1/2017,9:14,top_img,true,4252,2,2_1_2_0,word_3_word_1_word_2,different,mouth,English_Speech,preschool,katy,,,,,,,,,male
jMSWa,21,13,mal_plain,fem_sws,1,airplane,toothbrush,bread,toothbrush,bread,airplane,mal_plain_fem_sws,critical,2/1/2017,9:14,right,true,3237,1,1_2_2_0,word_1_word_3_word_2,different,airplane,English_Speech,preschool,katy,,,,,,,,,male
jMSWa,21,13,mal_plain,fem_sws,2,airplane,toothbrush,bread,toothbrush,bread,airplane,mal_plain_fem_sws,critical,2/1/2017,9:14,top_img,true,3134,1,1_2_2_0,word_1_word_3_word_2,different,toothbrush,English_Speech,preschool,katy,,,,,,,,,male
jMSWa,21,13,mal_plain,fem_sws,3,airplane,toothbrush,bread,toothbrush,bread,airplane,mal_plain_fem_sws,critical,2/1/2017,9:14,left,true,131,2,1_2_2_0,word_1_word_3_word_2,different,bread,English_Speech,preschool,katy,,,,,,,,,male
jMSWa,22,14,mal_plain,fem_sws,1,cheese,shoes,door,cheese,shoes,door,mal_plain_fem_sws,critical,2/1/2017,9:14,top_img,true,4805,2,2_1_1_0,word_1_word_2_word_3,different,cheese,English_Speech,preschool,katy,,,,,,,,,male
jMSWa,22,14,mal_plain,fem_sws,2,cheese,shoes,door,cheese,shoes,door,mal_plain_fem_sws,critical,2/1/2017,9:14,left,true,3001,2,2_1_1_0,word_1_word_2_word_3,different,shoes,English_Speech,preschool,katy,,,,,,,,,male
jMSWa,22,14,mal_plain,fem_sws,3,cheese,shoes,door,cheese,shoes,door,mal_plain_fem_sws,critical,2/1/2017,9:14,right,true,2232,2,2_1_1_0,word_1_word_2_word_3,different,door,English_Speech,preschool,katy,,,,,,,,,male
jMSWa,23,3,mal_plain,fem_sws,1,telephone,nose,nose,telephone,nose,trousers,mal_plain_fem_sws,critical,2/1/2017,9:14,top_img,true,2636,2,2_1_1_1,word_3_word_2_word_1,near,telephone,English_Speech,preschool,katy,,,,,,,,,male
jMSWa,23,3,mal_plain,fem_sws,2,telephone,nose,nose,telephone,nose,trousers,mal_plain_fem_sws,critical,2/1/2017,9:14,left,true,2591,1,2_1_1_1,word_3_word_2_word_1,near,nose,English_Speech,preschool,katy,,,,,,,,,male
jMSWa,23,3,mal_plain,fem_sws,3,telephone,nose,nose,telephone,nose,trousers,mal_plain_fem_sws,critical,2/1/2017,9:14,left,true,2686,2,2_1_1_1,word_3_word_2_word_1,near,nose,English_Speech,preschool,katy,,,,,,,,,male
jMSWa,24,6,mal_plain,fem_sws,1,carrot,peas,carrot,peas,carrot,bird,mal_plain_fem_sws,critical,2/1/2017,9:14,left,true,4331,2,2_1_2_1,word_2_word_3_word_1,far,carrot,English_Speech,preschool,katy,,,,,,,,,male
jMSWa,24,6,mal_plain,fem_sws,2,carrot,peas,carrot,peas,carrot,bird,mal_plain_fem_sws,critical,2/1/2017,9:14,top_img,true,3188,2,2_1_2_1,word_2_word_3_word_1,far,peas,English_Speech,preschool,katy,,,,,,,,,male
jMSWa,24,6,mal_plain,fem_sws,3,carrot,peas,carrot,peas,carrot,bird,mal_plain_fem_sws,critical,2/1/2017,9:14,left,true,5057,2,2_1_2_1,word_2_word_3_word_1,far,carrot,English_Speech,preschool,katy,,,,,,,,,male
jMSWa,25,10,mal_plain,fem_sws,1,pig,tshirt,pig,hat,pig,tshirt,mal_plain_fem_sws,critical,2/1/2017,9:14,left,true,3513,2,1_2_1_1,word_3_word_1_word_2,far,pig,English_Speech,preschool,katy,,,,,,,,,male
jMSWa,25,10,mal_plain,fem_sws,2,pig,tshirt,pig,hat,pig,tshirt,mal_plain_fem_sws,critical,2/1/2017,9:14,right,true,2829,2,1_2_1_1,word_3_word_1_word_2,far,tshirt,English_Speech,preschool,katy,,,,,,,,,male
jMSWa,25,10,mal_plain,fem_sws,3,pig,tshirt,pig,hat,pig,tshirt,mal_plain_fem_sws,critical,2/1/2017,9:14,left,true,4574,2,1_2_1_1,word_3_word_1_word_2,far,pig,English_Speech,preschool,katy,,,,,,,,,male
