subject_id,trial_number,trial_id,plain,sws,instruction_number,sound1_item,sound2_item,sound3_item,top_image,left_image,right_image,sound_gender,trial_type,date_stamp,time_stamp,side_chosen,accuracy,rt,play_counter,order,pic_position,distance,chosen_pic,test_lang,testing_loc,tester,date_of_birth,ethnicity,native_lang,other_langs,parental_occ,dev_info,birth_order,num_siblings,gender
JQfDA,1,0,mal_plain,mal_sws,1,glasses,tractor,fireman,glasses,fireman,tractor,mal_plain_mal_sws,training,2/1/2017,9:29,top_img,true,2730,1,2_1_2_0,word_2_word_1_word_3,different,glasses,English_Speech,preschool,megan,,,,,,,,,male
JQfDA,1,0,mal_plain,mal_sws,2,glasses,tractor,fireman,glasses,fireman,tractor,mal_plain_mal_sws,training,2/1/2017,9:29,right,true,2008,2,2_1_2_0,word_2_word_1_word_3,different,tractor,English_Speech,preschool,megan,,,,,,,,,male
JQfDA,1,0,mal_plain,mal_sws,3,glasses,tractor,fireman,glasses,fireman,tractor,mal_plain_mal_sws,training,2/1/2017,9:29,left,true,3674,2,2_1_2_0,word_2_word_1_word_3,different,fireman,English_Speech,preschool,megan,,,,,,,,,male
JQfDA,2,16,mal_plain,mal_sws,1,chair,banana,paintbrush,paintbrush,banana,chair,mal_plain_mal_sws,critical,2/1/2017,9:29,right,true,2896,4,1_2_2_0,word_1_word_2_word_3,different,chair,English_Speech,preschool,megan,,,,,,,,,male
JQfDA,2,16,mal_plain,mal_sws,2,chair,banana,paintbrush,paintbrush,banana,chair,mal_plain_mal_sws,critical,2/1/2017,9:29,left,true,2099,2,1_2_2_0,word_1_word_2_word_3,different,banana,English_Speech,preschool,megan,,,,,,,,,male
JQfDA,2,16,mal_plain,mal_sws,3,chair,banana,paintbrush,paintbrush,banana,chair,mal_plain_mal_sws,critical,2/1/2017,9:29,top_img,true,3396,2,1_2_2_0,word_1_word_2_word_3,different,paintbrush,English_Speech,preschool,megan,,,,,,,,,male
JQfDA,3,21,mal_plain,mal_sws,1,frog,eye,eye,eye,sheep,frog,mal_plain_mal_sws,critical,2/1/2017,9:29,right,true,2953,2,2_1_1_1,word_3_word_2_word_1,near,frog,English_Speech,preschool,megan,,,,,,,,,male
JQfDA,3,21,mal_plain,mal_sws,2,frog,eye,eye,eye,sheep,frog,mal_plain_mal_sws,critical,2/1/2017,9:29,top_img,true,2394,1,2_1_1_1,word_3_word_2_word_1,near,eye,English_Speech,preschool,megan,,,,,,,,,male
JQfDA,3,21,mal_plain,mal_sws,3,frog,eye,eye,eye,sheep,frog,mal_plain_mal_sws,critical,2/1/2017,9:29,left,false,1949,3,2_1_1_1,word_3_word_2_word_1,near,sheep,English_Speech,preschool,megan,,,,,,,,,male
JQfDA,4,6,mal_plain,mal_sws,1,peas,carrot,bird,carrot,bird,peas,mal_plain_mal_sws,critical,2/1/2017,9:29,right,true,2230,1,1_2_2_0,word_3_word_1_word_2,different,peas,English_Speech,preschool,megan,,,,,,,,,male
JQfDA,4,6,mal_plain,mal_sws,2,peas,carrot,bird,carrot,bird,peas,mal_plain_mal_sws,critical,2/1/2017,9:29,top_img,true,2490,1,1_2_2_0,word_3_word_1_word_2,different,carrot,English_Speech,preschool,megan,,,,,,,,,male
JQfDA,4,6,mal_plain,mal_sws,3,peas,carrot,bird,carrot,bird,peas,mal_plain_mal_sws,critical,2/1/2017,9:29,left,true,1298,6,1_2_2_0,word_3_word_1_word_2,different,bird,English_Speech,preschool,megan,,,,,,,,,male
JQfDA,5,22,mal_plain,mal_sws,1,doctor,bike,dog,bike,dog,doctor,mal_plain_mal_sws,critical,2/1/2017,9:29,right,true,2586,2,2_1_1_0,word_1_word_2_word_3,different,doctor,English_Speech,preschool,megan,,,,,,,,,male
JQfDA,5,22,mal_plain,mal_sws,2,doctor,bike,dog,bike,dog,doctor,mal_plain_mal_sws,critical,2/1/2017,9:29,top_img,true,2247,2,2_1_1_0,word_1_word_2_word_3,different,bike,English_Speech,preschool,megan,,,,,,,,,male
JQfDA,5,22,mal_plain,mal_sws,3,doctor,bike,dog,bike,dog,doctor,mal_plain_mal_sws,critical,2/1/2017,9:29,left,true,2804,2,2_1_1_0,word_1_word_2_word_3,different,dog,English_Speech,preschool,megan,,,,,,,,,male
JQfDA,6,20,mal_plain,mal_sws,1,apple,jumper,rabbit,apple,rabbit,jumper,mal_plain_mal_sws,critical,2/1/2017,9:29,top_img,true,2207,2,2_1_1_0,word_3_word_2_word_1,different,apple,English_Speech,preschool,megan,,,,,,,,,male
JQfDA,6,20,mal_plain,mal_sws,2,apple,jumper,rabbit,apple,rabbit,jumper,mal_plain_mal_sws,critical,2/1/2017,9:29,right,true,1987,2,2_1_1_0,word_3_word_2_word_1,different,jumper,English_Speech,preschool,megan,,,,,,,,,male
JQfDA,6,20,mal_plain,mal_sws,3,apple,jumper,rabbit,apple,rabbit,jumper,mal_plain_mal_sws,critical,2/1/2017,9:29,left,true,1833,2,2_1_1_0,word_3_word_2_word_1,different,rabbit,English_Speech,preschool,megan,,,,,,,,,male
JQfDA,7,18,mal_plain,mal_sws,1,raspberry,camera,camera,camera,ball,raspberry,mal_plain_mal_sws,critical,2/1/2017,9:29,right,true,3331,2,1_2_2_1,word_3_word_1_word_2,near,raspberry,English_Speech,preschool,megan,,,,,,,,,male
JQfDA,7,18,mal_plain,mal_sws,2,raspberry,camera,camera,camera,ball,raspberry,mal_plain_mal_sws,critical,2/1/2017,9:29,top_img,true,1770,2,1_2_2_1,word_3_word_1_word_2,near,camera,English_Speech,preschool,megan,,,,,,,,,male
JQfDA,7,18,mal_plain,mal_sws,3,raspberry,camera,camera,camera,ball,raspberry,mal_plain_mal_sws,critical,2/1/2017,9:29,left,false,1091,2,1_2_2_1,word_3_word_1_word_2,near,ball,English_Speech,preschool,megan,,,,,,,,,male
JQfDA,8,3,mal_plain,mal_sws,1,telephone,nose,nose,telephone,nose,trousers,mal_plain_mal_sws,critical,2/1/2017,9:29,top_img,true,2862,2,2_1_1_1,word_3_word_2_word_1,near,telephone,English_Speech,preschool,megan,,,,,,,,,male
JQfDA,8,3,mal_plain,mal_sws,2,telephone,nose,nose,telephone,nose,trousers,mal_plain_mal_sws,critical,2/1/2017,9:29,left,true,2632,4,2_1_1_1,word_3_word_2_word_1,near,nose,English_Speech,preschool,megan,,,,,,,,,male
JQfDA,8,3,mal_plain,mal_sws,3,telephone,nose,nose,telephone,nose,trousers,mal_plain_mal_sws,critical,2/1/2017,9:29,right,false,3068,2,2_1_1_1,word_3_word_2_word_1,near,trousers,English_Speech,preschool,megan,,,,,,,,,male
JQfDA,9,1,mal_plain,mal_sws,1,train,spoon,baby,spoon,baby,train,mal_plain_mal_sws,critical,2/1/2017,9:29,right,true,2146,2,2_1_2_0,word_1_word_2_word_3,different,train,English_Speech,preschool,megan,,,,,,,,,male
JQfDA,9,1,mal_plain,mal_sws,2,train,spoon,baby,spoon,baby,train,mal_plain_mal_sws,critical,2/1/2017,9:29,top_img,true,1812,2,2_1_2_0,word_1_word_2_word_3,different,spoon,English_Speech,preschool,megan,,,,,,,,,male
JQfDA,9,1,mal_plain,mal_sws,3,train,spoon,baby,spoon,baby,train,mal_plain_mal_sws,critical,2/1/2017,9:29,left,true,2528,2,2_1_2_0,word_1_word_2_word_3,different,baby,English_Speech,preschool,megan,,,,,,,,,male
JQfDA,10,17,mal_plain,mal_sws,1,hand,cake,hand,ambulance,cake,hand,mal_plain_mal_sws,critical,2/1/2017,9:29,right,true,2301,4,2_1_2_1,word_2_word_1_word_3,far,hand,English_Speech,preschool,megan,,,,,,,,,male
JQfDA,10,17,mal_plain,mal_sws,2,hand,cake,hand,ambulance,cake,hand,mal_plain_mal_sws,critical,2/1/2017,9:29,left,true,2225,1,2_1_2_1,word_2_word_1_word_3,far,cake,English_Speech,preschool,megan,,,,,,,,,male
JQfDA,10,17,mal_plain,mal_sws,3,hand,cake,hand,ambulance,cake,hand,mal_plain_mal_sws,critical,2/1/2017,9:29,top_img,false,155,2,2_1_2_1,word_2_word_1_word_3,far,ambulance,English_Speech,preschool,megan,,,,,,,,,male
JQfDA,11,14,mal_plain,mal_sws,1,cheese,door,cheese,door,shoes,cheese,mal_plain_mal_sws,critical,2/1/2017,9:29,right,true,2637,2,1_2_1_1,word_3_word_2_word_1,far,cheese,English_Speech,preschool,megan,,,,,,,,,male
JQfDA,11,14,mal_plain,mal_sws,2,cheese,door,cheese,door,shoes,cheese,mal_plain_mal_sws,critical,2/1/2017,9:29,top_img,true,2100,1,1_2_1_1,word_3_word_2_word_1,far,door,English_Speech,preschool,megan,,,,,,,,,male
JQfDA,11,14,mal_plain,mal_sws,3,cheese,door,cheese,door,shoes,cheese,mal_plain_mal_sws,critical,2/1/2017,9:29,left,false,2040,2,1_2_1_1,word_3_word_2_word_1,far,shoes,English_Speech,preschool,megan,,,,,,,,,male
JQfDA,12,4,mal_plain,mal_sws,1,flower,coat,strawberry,coat,strawberry,flower,mal_plain_mal_sws,critical,2/1/2017,9:29,right,true,1941,1,2_1_1_0,word_1_word_2_word_3,different,flower,English_Speech,preschool,megan,,,,,,,,,male
JQfDA,12,4,mal_plain,mal_sws,2,flower,coat,strawberry,coat,strawberry,flower,mal_plain_mal_sws,critical,2/1/2017,9:29,top_img,true,2383,1,2_1_1_0,word_1_word_2_word_3,different,coat,English_Speech,preschool,megan,,,,,,,,,male
JQfDA,12,4,mal_plain,mal_sws,3,flower,coat,strawberry,coat,strawberry,flower,mal_plain_mal_sws,critical,2/1/2017,9:29,left,true,2729,2,2_1_1_0,word_1_word_2_word_3,different,strawberry,English_Speech,preschool,megan,,,,,,,,,male
JQfDA,13,19,mal_plain,mal_sws,1,santa,tree,santa,building_blocks,santa,tree,mal_plain_mal_sws,critical,2/1/2017,9:29,left,true,2796,2,2_1_2_1,word_2_word_1_word_3,far,santa,English_Speech,preschool,megan,,,,,,,,,male
JQfDA,13,19,mal_plain,mal_sws,2,santa,tree,santa,building_blocks,santa,tree,mal_plain_mal_sws,critical,2/1/2017,9:29,right,true,2203,2,2_1_2_1,word_2_word_1_word_3,far,tree,English_Speech,preschool,megan,,,,,,,,,male
JQfDA,13,19,mal_plain,mal_sws,3,santa,tree,santa,building_blocks,santa,tree,mal_plain_mal_sws,critical,2/1/2017,9:29,top_img,false,2753,2,2_1_2_1,word_2_word_1_word_3,far,building_blocks,English_Speech,preschool,megan,,,,,,,,,male
JQfDA,14,9,mal_plain,mal_sws,1,pizza,window,window,grapes,window,pizza,mal_plain_mal_sws,critical,2/1/2017,9:29,right,true,2998,2,1_2_2_1,word_3_word_2_word_1,near,pizza,English_Speech,preschool,megan,,,,,,,,,male
JQfDA,14,9,mal_plain,mal_sws,2,pizza,window,window,grapes,window,pizza,mal_plain_mal_sws,critical,2/1/2017,9:29,left,true,2021,1,1_2_2_1,word_3_word_2_word_1,near,window,English_Speech,preschool,megan,,,,,,,,,male
JQfDA,14,9,mal_plain,mal_sws,3,pizza,window,window,grapes,window,pizza,mal_plain_mal_sws,critical,2/1/2017,9:29,top_img,false,2205,2,1_2_2_1,word_3_word_2_word_1,near,grapes,English_Speech,preschool,megan,,,,,,,,,male
JQfDA,15,23,mal_plain,mal_sws,1,bath,table,teddy_bear,bath,teddy_bear,table,mal_plain_mal_sws,critical,2/1/2017,9:29,top_img,true,2135,2,2_1_1_0,word_1_word_2_word_3,different,bath,English_Speech,preschool,megan,,,,,,,,,male
JQfDA,15,23,mal_plain,mal_sws,2,bath,table,teddy_bear,bath,teddy_bear,table,mal_plain_mal_sws,critical,2/1/2017,9:29,right,true,2468,2,2_1_1_0,word_1_word_2_word_3,different,table,English_Speech,preschool,megan,,,,,,,,,male
JQfDA,15,23,mal_plain,mal_sws,3,bath,table,teddy_bear,bath,teddy_bear,table,mal_plain_mal_sws,critical,2/1/2017,9:29,left,true,2869,2,2_1_1_0,word_1_word_2_word_3,different,teddy_bear,English_Speech,preschool,megan,,,,,,,,,male
JQfDA,16,10,mal_plain,mal_sws,1,pig,tshirt,hat,tshirt,hat,pig,mal_plain_mal_sws,critical,2/1/2017,9:29,right,true,2267,3,2_1_1_0,word_2_word_3_word_1,different,pig,English_Speech,preschool,megan,,,,,,,,,male
JQfDA,16,10,mal_plain,mal_sws,2,pig,tshirt,hat,tshirt,hat,pig,mal_plain_mal_sws,critical,2/1/2017,9:29,top_img,true,2706,2,2_1_1_0,word_2_word_3_word_1,different,tshirt,English_Speech,preschool,megan,,,,,,,,,male
JQfDA,16,10,mal_plain,mal_sws,3,pig,tshirt,hat,tshirt,hat,pig,mal_plain_mal_sws,critical,2/1/2017,9:29,left,true,2055,2,2_1_1_0,word_2_word_3_word_1,different,hat,English_Speech,preschool,megan,,,,,,,,,male
JQfDA,17,8,mal_plain,mal_sws,1,ear,wellyboots,fire_engine,fire_engine,ear,wellyboots,mal_plain_mal_sws,critical,2/1/2017,9:29,left,true,1796,2,1_2_2_0,word_2_word_3_word_1,different,ear,English_Speech,preschool,megan,,,,,,,,,male
JQfDA,17,8,mal_plain,mal_sws,2,ear,wellyboots,fire_engine,fire_engine,ear,wellyboots,mal_plain_mal_sws,critical,2/1/2017,9:29,right,true,2372,2,1_2_2_0,word_2_word_3_word_1,different,wellyboots,English_Speech,preschool,megan,,,,,,,,,male
JQfDA,17,8,mal_plain,mal_sws,3,ear,wellyboots,fire_engine,fire_engine,ear,wellyboots,mal_plain_mal_sws,critical,2/1/2017,9:29,top_img,true,2953,2,1_2_2_0,word_2_word_3_word_1,different,fire_engine,English_Speech,preschool,megan,,,,,,,,,male
JQfDA,18,5,mal_plain,mal_sws,1,orange,mouth,car,car,orange,mouth,mal_plain_mal_sws,critical,2/1/2017,9:29,left,true,5907,2,2_1_1_0,word_2_word_1_word_3,different,orange,English_Speech,preschool,megan,,,,,,,,,male
JQfDA,18,5,mal_plain,mal_sws,2,orange,mouth,car,car,orange,mouth,mal_plain_mal_sws,critical,2/1/2017,9:29,right,true,2056,2,2_1_1_0,word_2_word_1_word_3,different,mouth,English_Speech,preschool,megan,,,,,,,,,male
JQfDA,18,5,mal_plain,mal_sws,3,orange,mouth,car,car,orange,mouth,mal_plain_mal_sws,critical,2/1/2017,9:29,top_img,true,1489,2,2_1_1_0,word_2_word_1_word_3,different,car,English_Speech,preschool,megan,,,,,,,,,male
JQfDA,19,24,mal_plain,mal_sws,1,sink,socks,fish,fish,socks,sink,mal_plain_mal_sws,critical,2/1/2017,9:29,right,true,3800,2,2_1_2_0,word_2_word_3_word_1,different,sink,English_Speech,preschool,megan,,,,,,,,,male
JQfDA,19,24,mal_plain,mal_sws,2,sink,socks,fish,fish,socks,sink,mal_plain_mal_sws,critical,2/1/2017,9:29,left,true,2437,2,2_1_2_0,word_2_word_3_word_1,different,socks,English_Speech,preschool,megan,,,,,,,,,male
JQfDA,19,24,mal_plain,mal_sws,3,sink,socks,fish,fish,socks,sink,mal_plain_mal_sws,critical,2/1/2017,9:29,top_img,true,2239,2,2_1_2_0,word_2_word_3_word_1,different,fish,English_Speech,preschool,megan,,,,,,,,,male
JQfDA,20,11,mal_plain,mal_sws,1,book,cow,book,lorry,book,cow,mal_plain_mal_sws,critical,2/1/2017,9:29,left,true,2005,2,1_2_1_1,word_2_word_1_word_3,far,book,English_Speech,preschool,megan,,,,,,,,,male
JQfDA,20,11,mal_plain,mal_sws,2,book,cow,book,lorry,book,cow,mal_plain_mal_sws,critical,2/1/2017,9:29,right,true,2224,2,1_2_1_1,word_2_word_1_word_3,far,cow,English_Speech,preschool,megan,,,,,,,,,male
JQfDA,20,11,mal_plain,mal_sws,3,book,cow,book,lorry,book,cow,mal_plain_mal_sws,critical,2/1/2017,9:29,top_img,false,2024,2,1_2_1_1,word_2_word_1_word_3,far,lorry,English_Speech,preschool,megan,,,,,,,,,male
JQfDA,21,12,mal_plain,mal_sws,1,yoghurt,foot,foot,foot,yoghurt,gloves,mal_plain_mal_sws,critical,2/1/2017,9:29,left,true,2524,4,1_2_2_1,word_1_word_2_word_3,near,yoghurt,English_Speech,preschool,megan,,,,,,,,,male
JQfDA,21,12,mal_plain,mal_sws,2,yoghurt,foot,foot,foot,yoghurt,gloves,mal_plain_mal_sws,critical,2/1/2017,9:29,top_img,true,2089,2,1_2_2_1,word_1_word_2_word_3,near,foot,English_Speech,preschool,megan,,,,,,,,,male
JQfDA,21,12,mal_plain,mal_sws,3,yoghurt,foot,foot,foot,yoghurt,gloves,mal_plain_mal_sws,critical,2/1/2017,9:29,right,false,2251,2,1_2_2_1,word_1_word_2_word_3,near,gloves,English_Speech,preschool,megan,,,,,,,,,male
JQfDA,22,13,mal_plain,mal_sws,1,airplane,toothbrush,toothbrush,airplane,bread,toothbrush,mal_plain_mal_sws,critical,2/1/2017,9:29,top_img,true,2257,2,2_1_1_1,word_2_word_3_word_1,near,airplane,English_Speech,preschool,megan,,,,,,,,,male
JQfDA,22,13,mal_plain,mal_sws,2,airplane,toothbrush,toothbrush,airplane,bread,toothbrush,mal_plain_mal_sws,critical,2/1/2017,9:29,right,true,2261,2,2_1_1_1,word_2_word_3_word_1,near,toothbrush,English_Speech,preschool,megan,,,,,,,,,male
JQfDA,22,13,mal_plain,mal_sws,3,airplane,toothbrush,toothbrush,airplane,bread,toothbrush,mal_plain_mal_sws,critical,2/1/2017,9:29,left,false,3095,1,2_1_1_1,word_2_word_3_word_1,near,bread,English_Speech,preschool,megan,,,,,,,,,male
JQfDA,23,7,mal_plain,mal_sws,1,horse,cat,horse,cat,lolly,horse,mal_plain_mal_sws,critical,2/1/2017,9:29,right,true,5096,2,1_2_1_1,word_3_word_1_word_2,far,horse,English_Speech,preschool,megan,,,,,,,,,male
JQfDA,23,7,mal_plain,mal_sws,2,horse,cat,horse,cat,lolly,horse,mal_plain_mal_sws,critical,2/1/2017,9:29,top_img,true,3796,2,1_2_1_1,word_3_word_1_word_2,far,cat,English_Speech,preschool,megan,,,,,,,,,male
JQfDA,23,7,mal_plain,mal_sws,3,horse,cat,horse,cat,lolly,horse,mal_plain_mal_sws,critical,2/1/2017,9:29,left,false,2733,2,1_2_1_1,word_3_word_1_word_2,far,lolly,English_Speech,preschool,megan,,,,,,,,,male
JQfDA,24,2,mal_plain,mal_sws,1,chicken,fork,chicken,bed,fork,chicken,mal_plain_mal_sws,critical,2/1/2017,9:29,right,true,3423,2,2_1_2_1,word_1_word_3_word_2,far,chicken,English_Speech,preschool,megan,,,,,,,,,male
JQfDA,24,2,mal_plain,mal_sws,2,chicken,fork,chicken,bed,fork,chicken,mal_plain_mal_sws,critical,2/1/2017,9:29,left,true,2984,2,2_1_2_1,word_1_word_3_word_2,far,fork,English_Speech,preschool,megan,,,,,,,,,male
JQfDA,24,2,mal_plain,mal_sws,3,chicken,fork,chicken,bed,fork,chicken,mal_plain_mal_sws,critical,2/1/2017,9:29,top_img,false,2802,2,2_1_2_1,word_1_word_3_word_2,far,bed,English_Speech,preschool,megan,,,,,,,,,male
JQfDA,25,15,mal_plain,mal_sws,1,slide,pencil,slide,beans,slide,pencil,mal_plain_mal_sws,critical,2/1/2017,9:29,left,true,2631,2,1_2_1_1,word_3_word_1_word_2,far,slide,English_Speech,preschool,megan,,,,,,,,,male
JQfDA,25,15,mal_plain,mal_sws,2,slide,pencil,slide,beans,slide,pencil,mal_plain_mal_sws,critical,2/1/2017,9:29,right,true,1857,3,1_2_1_1,word_3_word_1_word_2,far,pencil,English_Speech,preschool,megan,,,,,,,,,male
JQfDA,25,15,mal_plain,mal_sws,3,slide,pencil,slide,beans,slide,pencil,mal_plain_mal_sws,critical,2/1/2017,9:29,top_img,false,3236,2,1_2_1_1,word_3_word_1_word_2,far,beans,English_Speech,preschool,megan,,,,,,,,,male
