subject_id,trial_number,trial_id,plain,sws,instruction_number,sound1_item,sound2_item,sound3_item,top_image,left_image,right_image,sound_gender,trial_type,date_stamp,time_stamp,side_chosen,accuracy,rt,play_counter,order,pic_position,distance,chosen_pic,test_lang,testing_loc,tester,date_of_birth,ethnicity,native_lang,other_langs,parental_occ,dev_info,birth_order,num_siblings,gender
lgJ9e,1,0,mal_plain,mal_sws,1,tractor,glasses,tractor,fireman,tractor,glasses,mal_plain_mal_sws,training,2/1/2017,11:20,left,true,13697,2,2_1_2_1,word_1_word_3_word_2,far,tractor,English_Speech,preschool,megan,,,,,,,,,female
lgJ9e,1,0,mal_plain,mal_sws,2,tractor,glasses,tractor,fireman,tractor,glasses,mal_plain_mal_sws,training,2/1/2017,11:20,right,true,3538,2,2_1_2_1,word_1_word_3_word_2,far,glasses,English_Speech,preschool,megan,,,,,,,,,female
lgJ9e,1,0,mal_plain,mal_sws,3,tractor,glasses,tractor,fireman,tractor,glasses,mal_plain_mal_sws,training,2/1/2017,11:20,left,true,8655,4,2_1_2_1,word_1_word_3_word_2,far,tractor,English_Speech,preschool,megan,,,,,,,,,female
lgJ9e,2,22,mal_plain,mal_sws,1,dog,doctor,bike,bike,doctor,dog,mal_plain_mal_sws,critical,2/1/2017,11:20,right,true,4376,2,2_1_1_0,word_1_word_3_word_2,different,dog,English_Speech,preschool,megan,,,,,,,,,female
lgJ9e,2,22,mal_plain,mal_sws,2,dog,doctor,bike,bike,doctor,dog,mal_plain_mal_sws,critical,2/1/2017,11:20,left,true,3062,2,2_1_1_0,word_1_word_3_word_2,different,doctor,English_Speech,preschool,megan,,,,,,,,,female
lgJ9e,2,22,mal_plain,mal_sws,3,dog,doctor,bike,bike,doctor,dog,mal_plain_mal_sws,critical,2/1/2017,11:20,top_img,true,697,4,2_1_1_0,word_1_word_3_word_2,different,bike,English_Speech,preschool,megan,,,,,,,,,female
lgJ9e,3,2,mal_plain,mal_sws,1,chicken,fork,chicken,bed,chicken,fork,mal_plain_mal_sws,critical,2/1/2017,11:20,left,true,7400,2,1_2_1_1,word_1_word_2_word_3,far,chicken,English_Speech,preschool,megan,,,,,,,,,female
lgJ9e,3,2,mal_plain,mal_sws,2,chicken,fork,chicken,bed,chicken,fork,mal_plain_mal_sws,critical,2/1/2017,11:20,right,true,3159,2,1_2_1_1,word_1_word_2_word_3,far,fork,English_Speech,preschool,megan,,,,,,,,,female
lgJ9e,3,2,mal_plain,mal_sws,3,chicken,fork,chicken,bed,chicken,fork,mal_plain_mal_sws,critical,2/1/2017,11:20,left,true,2976,5,1_2_1_1,word_1_word_2_word_3,far,chicken,English_Speech,preschool,megan,,,,,,,,,female
lgJ9e,4,8,mal_plain,mal_sws,1,wellyboots,fire_engine,ear,wellyboots,ear,fire_engine,mal_plain_mal_sws,critical,2/1/2017,11:20,top_img,true,3632,2,2_1_1_0,word_1_word_3_word_2,different,wellyboots,English_Speech,preschool,megan,,,,,,,,,female
lgJ9e,4,8,mal_plain,mal_sws,2,wellyboots,fire_engine,ear,wellyboots,ear,fire_engine,mal_plain_mal_sws,critical,2/1/2017,11:20,right,true,3199,2,2_1_1_0,word_1_word_3_word_2,different,fire_engine,English_Speech,preschool,megan,,,,,,,,,female
lgJ9e,4,8,mal_plain,mal_sws,3,wellyboots,fire_engine,ear,wellyboots,ear,fire_engine,mal_plain_mal_sws,critical,2/1/2017,11:20,left,true,5429,8,2_1_1_0,word_1_word_3_word_2,different,ear,English_Speech,preschool,megan,,,,,,,,,female
lgJ9e,5,1,mal_plain,mal_sws,1,spoon,baby,train,train,baby,spoon,mal_plain_mal_sws,critical,2/1/2017,11:20,right,true,2899,2,2_1_1_0,word_3_word_2_word_1,different,spoon,English_Speech,preschool,megan,,,,,,,,,female
lgJ9e,5,1,mal_plain,mal_sws,2,spoon,baby,train,train,baby,spoon,mal_plain_mal_sws,critical,2/1/2017,11:20,left,true,2555,2,2_1_1_0,word_3_word_2_word_1,different,baby,English_Speech,preschool,megan,,,,,,,,,female
lgJ9e,5,1,mal_plain,mal_sws,3,spoon,baby,train,train,baby,spoon,mal_plain_mal_sws,critical,2/1/2017,11:20,top_img,true,7716,2,2_1_1_0,word_3_word_2_word_1,different,train,English_Speech,preschool,megan,,,,,,,,,female
lgJ9e,6,16,mal_plain,mal_sws,1,chair,paintbrush,banana,banana,chair,paintbrush,mal_plain_mal_sws,critical,2/1/2017,11:20,left,true,3925,2,2_1_2_0,word_2_word_3_word_1,different,chair,English_Speech,preschool,megan,,,,,,,,,female
lgJ9e,6,16,mal_plain,mal_sws,2,chair,paintbrush,banana,banana,chair,paintbrush,mal_plain_mal_sws,critical,2/1/2017,11:20,right,true,3427,2,2_1_2_0,word_2_word_3_word_1,different,paintbrush,English_Speech,preschool,megan,,,,,,,,,female
lgJ9e,6,16,mal_plain,mal_sws,3,chair,paintbrush,banana,banana,chair,paintbrush,mal_plain_mal_sws,critical,2/1/2017,11:20,top_img,true,4195,1,2_1_2_0,word_2_word_3_word_1,different,banana,English_Speech,preschool,megan,,,,,,,,,female
lgJ9e,7,17,mal_plain,mal_sws,1,hand,cake,hand,ambulance,hand,cake,mal_plain_mal_sws,critical,2/1/2017,11:20,left,true,5064,2,2_1_2_1,word_2_word_3_word_1,far,hand,English_Speech,preschool,megan,,,,,,,,,female
lgJ9e,7,17,mal_plain,mal_sws,2,hand,cake,hand,ambulance,hand,cake,mal_plain_mal_sws,critical,2/1/2017,11:20,right,true,4728,2,2_1_2_1,word_2_word_3_word_1,far,cake,English_Speech,preschool,megan,,,,,,,,,female
lgJ9e,7,17,mal_plain,mal_sws,3,hand,cake,hand,ambulance,hand,cake,mal_plain_mal_sws,critical,2/1/2017,11:20,top_img,false,5292,1,2_1_2_1,word_2_word_3_word_1,far,ambulance,English_Speech,preschool,megan,,,,,,,,,female
lgJ9e,8,20,mal_plain,mal_sws,1,rabbit,apple,jumper,apple,rabbit,jumper,mal_plain_mal_sws,critical,2/1/2017,11:20,left,true,2862,2,2_1_2_0,word_3_word_2_word_1,different,rabbit,English_Speech,preschool,megan,,,,,,,,,female
lgJ9e,8,20,mal_plain,mal_sws,2,rabbit,apple,jumper,apple,rabbit,jumper,mal_plain_mal_sws,critical,2/1/2017,11:20,top_img,true,2459,2,2_1_2_0,word_3_word_2_word_1,different,apple,English_Speech,preschool,megan,,,,,,,,,female
lgJ9e,8,20,mal_plain,mal_sws,3,rabbit,apple,jumper,apple,rabbit,jumper,mal_plain_mal_sws,critical,2/1/2017,11:20,right,true,5764,2,2_1_2_0,word_3_word_2_word_1,different,jumper,English_Speech,preschool,megan,,,,,,,,,female
lgJ9e,9,24,mal_plain,mal_sws,1,sink,socks,sink,socks,fish,sink,mal_plain_mal_sws,critical,2/1/2017,11:20,right,true,3038,4,2_1_2_1,word_3_word_2_word_1,far,sink,English_Speech,preschool,megan,,,,,,,,,female
lgJ9e,9,24,mal_plain,mal_sws,2,sink,socks,sink,socks,fish,sink,mal_plain_mal_sws,critical,2/1/2017,11:20,top_img,true,3005,2,2_1_2_1,word_3_word_2_word_1,far,socks,English_Speech,preschool,megan,,,,,,,,,female
lgJ9e,9,24,mal_plain,mal_sws,3,sink,socks,sink,socks,fish,sink,mal_plain_mal_sws,critical,2/1/2017,11:20,left,false,4095,1,2_1_2_1,word_3_word_2_word_1,far,fish,English_Speech,preschool,megan,,,,,,,,,female
lgJ9e,10,3,mal_plain,mal_sws,1,telephone,nose,nose,telephone,nose,trousers,mal_plain_mal_sws,critical,2/1/2017,11:20,top_img,true,3291,2,2_1_1_1,word_3_word_2_word_1,near,telephone,English_Speech,preschool,megan,,,,,,,,,female
lgJ9e,10,3,mal_plain,mal_sws,2,telephone,nose,nose,telephone,nose,trousers,mal_plain_mal_sws,critical,2/1/2017,11:20,left,true,2951,1,2_1_1_1,word_3_word_2_word_1,near,nose,English_Speech,preschool,megan,,,,,,,,,female
lgJ9e,10,3,mal_plain,mal_sws,3,telephone,nose,nose,telephone,nose,trousers,mal_plain_mal_sws,critical,2/1/2017,11:20,right,false,4896,2,2_1_1_1,word_3_word_2_word_1,near,trousers,English_Speech,preschool,megan,,,,,,,,,female
lgJ9e,11,15,mal_plain,mal_sws,1,beans,pencil,beans,pencil,beans,slide,mal_plain_mal_sws,critical,2/1/2017,11:20,left,true,4867,2,1_2_1_1,word_2_word_3_word_1,far,beans,English_Speech,preschool,megan,,,,,,,,,female
lgJ9e,11,15,mal_plain,mal_sws,2,beans,pencil,beans,pencil,beans,slide,mal_plain_mal_sws,critical,2/1/2017,11:20,top_img,true,3011,2,1_2_1_1,word_2_word_3_word_1,far,pencil,English_Speech,preschool,megan,,,,,,,,,female
lgJ9e,11,15,mal_plain,mal_sws,3,beans,pencil,beans,pencil,beans,slide,mal_plain_mal_sws,critical,2/1/2017,11:20,right,false,3796,2,1_2_1_1,word_2_word_3_word_1,far,slide,English_Speech,preschool,megan,,,,,,,,,female
lgJ9e,12,14,mal_plain,mal_sws,1,door,shoes,cheese,shoes,door,cheese,mal_plain_mal_sws,critical,2/1/2017,11:20,left,true,3096,2,2_1_1_0,word_2_word_3_word_1,different,door,English_Speech,preschool,megan,,,,,,,,,female
lgJ9e,12,14,mal_plain,mal_sws,2,door,shoes,cheese,shoes,door,cheese,mal_plain_mal_sws,critical,2/1/2017,11:20,top_img,true,3297,2,2_1_1_0,word_2_word_3_word_1,different,shoes,English_Speech,preschool,megan,,,,,,,,,female
lgJ9e,12,14,mal_plain,mal_sws,3,door,shoes,cheese,shoes,door,cheese,mal_plain_mal_sws,critical,2/1/2017,11:20,right,true,4817,2,2_1_1_0,word_2_word_3_word_1,different,cheese,English_Speech,preschool,megan,,,,,,,,,female
lgJ9e,13,18,mal_plain,mal_sws,1,camera,ball,raspberry,camera,raspberry,ball,mal_plain_mal_sws,critical,2/1/2017,11:20,top_img,true,2574,4,1_2_2_0,word_3_word_2_word_1,different,camera,English_Speech,preschool,megan,,,,,,,,,female
lgJ9e,13,18,mal_plain,mal_sws,2,camera,ball,raspberry,camera,raspberry,ball,mal_plain_mal_sws,critical,2/1/2017,11:20,right,true,3156,2,1_2_2_0,word_3_word_2_word_1,different,ball,English_Speech,preschool,megan,,,,,,,,,female
lgJ9e,13,18,mal_plain,mal_sws,3,camera,ball,raspberry,camera,raspberry,ball,mal_plain_mal_sws,critical,2/1/2017,11:20,left,true,4122,2,1_2_2_0,word_3_word_2_word_1,different,raspberry,English_Speech,preschool,megan,,,,,,,,,female
lgJ9e,14,4,mal_plain,mal_sws,1,coat,flower,flower,coat,flower,strawberry,mal_plain_mal_sws,critical,2/1/2017,11:20,top_img,true,3146,2,1_2_2_1,word_1_word_3_word_2,near,coat,English_Speech,preschool,megan,,,,,,,,,female
lgJ9e,14,4,mal_plain,mal_sws,2,coat,flower,flower,coat,flower,strawberry,mal_plain_mal_sws,critical,2/1/2017,11:20,left,true,1832,1,1_2_2_1,word_1_word_3_word_2,near,flower,English_Speech,preschool,megan,,,,,,,,,female
lgJ9e,14,4,mal_plain,mal_sws,3,coat,flower,flower,coat,flower,strawberry,mal_plain_mal_sws,critical,2/1/2017,11:20,right,false,2765,2,1_2_2_1,word_1_word_3_word_2,near,strawberry,English_Speech,preschool,megan,,,,,,,,,female
lgJ9e,15,5,mal_plain,mal_sws,1,mouth,orange,car,car,orange,mouth,mal_plain_mal_sws,critical,2/1/2017,11:20,top_img,false,929,4,2_1_1_0,word_2_word_1_word_3,different,car,English_Speech,preschool,megan,,,,,,,,,female
lgJ9e,15,5,mal_plain,mal_sws,2,mouth,orange,car,car,orange,mouth,mal_plain_mal_sws,critical,2/1/2017,11:20,right,false,1286,2,2_1_1_0,word_2_word_1_word_3,different,mouth,English_Speech,preschool,megan,,,,,,,,,female
lgJ9e,15,5,mal_plain,mal_sws,3,mouth,orange,car,car,orange,mouth,mal_plain_mal_sws,critical,2/1/2017,11:20,top_img,true,5393,2,2_1_1_0,word_2_word_1_word_3,different,car,English_Speech,preschool,megan,,,,,,,,,female
lgJ9e,16,19,mal_plain,mal_sws,1,santa,tree,building_blocks,building_blocks,santa,tree,mal_plain_mal_sws,critical,2/1/2017,11:20,left,true,3093,2,2_1_1_0,word_2_word_1_word_3,different,santa,English_Speech,preschool,megan,,,,,,,,,female
lgJ9e,16,19,mal_plain,mal_sws,2,santa,tree,building_blocks,building_blocks,santa,tree,mal_plain_mal_sws,critical,2/1/2017,11:20,right,true,2917,2,2_1_1_0,word_2_word_1_word_3,different,tree,English_Speech,preschool,megan,,,,,,,,,female
lgJ9e,16,19,mal_plain,mal_sws,3,santa,tree,building_blocks,building_blocks,santa,tree,mal_plain_mal_sws,critical,2/1/2017,11:20,top_img,true,4953,1,2_1_1_0,word_2_word_1_word_3,different,building_blocks,English_Speech,preschool,megan,,,,,,,,,female
lgJ9e,17,10,mal_plain,mal_sws,1,tshirt,pig,pig,hat,pig,tshirt,mal_plain_mal_sws,critical,2/1/2017,11:20,right,true,3129,2,2_1_1_1,word_3_word_1_word_2,near,tshirt,English_Speech,preschool,megan,,,,,,,,,female
lgJ9e,17,10,mal_plain,mal_sws,2,tshirt,pig,pig,hat,pig,tshirt,mal_plain_mal_sws,critical,2/1/2017,11:20,left,true,2376,4,2_1_1_1,word_3_word_1_word_2,near,pig,English_Speech,preschool,megan,,,,,,,,,female
lgJ9e,17,10,mal_plain,mal_sws,3,tshirt,pig,pig,hat,pig,tshirt,mal_plain_mal_sws,critical,2/1/2017,11:20,top_img,false,3194,4,2_1_1_1,word_3_word_1_word_2,near,hat,English_Speech,preschool,megan,,,,,,,,,female
lgJ9e,18,6,mal_plain,mal_sws,1,bird,peas,carrot,bird,peas,carrot,mal_plain_mal_sws,critical,2/1/2017,11:20,top_img,true,2355,2,1_2_2_0,word_1_word_2_word_3,different,bird,English_Speech,preschool,megan,,,,,,,,,female
lgJ9e,18,6,mal_plain,mal_sws,2,bird,peas,carrot,bird,peas,carrot,mal_plain_mal_sws,critical,2/1/2017,11:20,left,true,2217,1,1_2_2_0,word_1_word_2_word_3,different,peas,English_Speech,preschool,megan,,,,,,,,,female
lgJ9e,18,6,mal_plain,mal_sws,3,bird,peas,carrot,bird,peas,carrot,mal_plain_mal_sws,critical,2/1/2017,11:20,right,true,2355,2,1_2_2_0,word_1_word_2_word_3,different,carrot,English_Speech,preschool,megan,,,,,,,,,female
lgJ9e,19,12,mal_plain,mal_sws,1,yoghurt,foot,foot,foot,gloves,yoghurt,mal_plain_mal_sws,critical,2/1/2017,11:20,right,true,5659,2,1_2_2_1,word_1_word_3_word_2,near,yoghurt,English_Speech,preschool,megan,,,,,,,,,female
lgJ9e,19,12,mal_plain,mal_sws,2,yoghurt,foot,foot,foot,gloves,yoghurt,mal_plain_mal_sws,critical,2/1/2017,11:20,top_img,true,2829,2,1_2_2_1,word_1_word_3_word_2,near,foot,English_Speech,preschool,megan,,,,,,,,,female
lgJ9e,19,12,mal_plain,mal_sws,3,yoghurt,foot,foot,foot,gloves,yoghurt,mal_plain_mal_sws,critical,2/1/2017,11:20,left,false,2221,2,1_2_2_1,word_1_word_3_word_2,near,gloves,English_Speech,preschool,megan,,,,,,,,,female
lgJ9e,20,23,mal_plain,mal_sws,1,teddy_bear,bath,table,bath,table,teddy_bear,mal_plain_mal_sws,critical,2/1/2017,11:20,right,true,2492,2,2_1_2_0,word_1_word_3_word_2,different,teddy_bear,English_Speech,preschool,megan,,,,,,,,,female
lgJ9e,20,23,mal_plain,mal_sws,2,teddy_bear,bath,table,bath,table,teddy_bear,mal_plain_mal_sws,critical,2/1/2017,11:20,top_img,true,6378,1,2_1_2_0,word_1_word_3_word_2,different,bath,English_Speech,preschool,megan,,,,,,,,,female
lgJ9e,20,23,mal_plain,mal_sws,3,teddy_bear,bath,table,bath,table,teddy_bear,mal_plain_mal_sws,critical,2/1/2017,11:20,left,true,3032,2,2_1_2_0,word_1_word_3_word_2,different,table,English_Speech,preschool,megan,,,,,,,,,female
lgJ9e,21,7,mal_plain,mal_sws,1,cat,lolly,cat,cat,lolly,horse,mal_plain_mal_sws,critical,2/1/2017,11:20,top_img,true,4782,2,1_2_1_1,word_3_word_1_word_2,far,cat,English_Speech,preschool,megan,,,,,,,,,female
lgJ9e,21,7,mal_plain,mal_sws,2,cat,lolly,cat,cat,lolly,horse,mal_plain_mal_sws,critical,2/1/2017,11:20,left,true,3721,1,1_2_1_1,word_3_word_1_word_2,far,lolly,English_Speech,preschool,megan,,,,,,,,,female
lgJ9e,21,7,mal_plain,mal_sws,3,cat,lolly,cat,cat,lolly,horse,mal_plain_mal_sws,critical,2/1/2017,11:20,top_img,true,3188,4,1_2_1_1,word_3_word_1_word_2,far,cat,English_Speech,preschool,megan,,,,,,,,,female
lgJ9e,22,9,mal_plain,mal_sws,1,window,grapes,grapes,grapes,pizza,window,mal_plain_mal_sws,critical,2/1/2017,11:20,right,true,3812,2,1_2_2_1,word_3_word_1_word_2,near,window,English_Speech,preschool,megan,,,,,,,,,female
lgJ9e,22,9,mal_plain,mal_sws,2,window,grapes,grapes,grapes,pizza,window,mal_plain_mal_sws,critical,2/1/2017,11:20,top_img,true,756,3,1_2_2_1,word_3_word_1_word_2,near,grapes,English_Speech,preschool,megan,,,,,,,,,female
lgJ9e,22,9,mal_plain,mal_sws,3,window,grapes,grapes,grapes,pizza,window,mal_plain_mal_sws,critical,2/1/2017,11:20,left,false,3391,2,1_2_2_1,word_3_word_1_word_2,near,pizza,English_Speech,preschool,megan,,,,,,,,,female
lgJ9e,23,13,mal_plain,mal_sws,1,bread,airplane,toothbrush,toothbrush,bread,airplane,mal_plain_mal_sws,critical,2/1/2017,11:20,left,true,3526,2,1_2_2_0,word_1_word_3_word_2,different,bread,English_Speech,preschool,megan,,,,,,,,,female
lgJ9e,23,13,mal_plain,mal_sws,2,bread,airplane,toothbrush,toothbrush,bread,airplane,mal_plain_mal_sws,critical,2/1/2017,11:20,right,true,1978,4,1_2_2_0,word_1_word_3_word_2,different,airplane,English_Speech,preschool,megan,,,,,,,,,female
lgJ9e,23,13,mal_plain,mal_sws,3,bread,airplane,toothbrush,toothbrush,bread,airplane,mal_plain_mal_sws,critical,2/1/2017,11:20,top_img,true,4330,3,1_2_2_0,word_1_word_3_word_2,different,toothbrush,English_Speech,preschool,megan,,,,,,,,,female
lgJ9e,24,21,mal_plain,mal_sws,1,frog,sheep,sheep,frog,sheep,eye,mal_plain_mal_sws,critical,2/1/2017,11:20,top_img,true,2954,2,2_1_1_1,word_1_word_2_word_3,near,frog,English_Speech,preschool,megan,,,,,,,,,female
lgJ9e,24,21,mal_plain,mal_sws,2,frog,sheep,sheep,frog,sheep,eye,mal_plain_mal_sws,critical,2/1/2017,11:20,left,true,2421,1,2_1_1_1,word_1_word_2_word_3,near,sheep,English_Speech,preschool,megan,,,,,,,,,female
lgJ9e,24,21,mal_plain,mal_sws,3,frog,sheep,sheep,frog,sheep,eye,mal_plain_mal_sws,critical,2/1/2017,11:20,right,false,2045,1,2_1_1_1,word_1_word_2_word_3,near,eye,English_Speech,preschool,megan,,,,,,,,,female
lgJ9e,25,11,mal_plain,mal_sws,1,cow,book,cow,cow,book,lorry,mal_plain_mal_sws,critical,2/1/2017,11:20,top_img,true,2300,2,1_2_1_1,word_3_word_1_word_2,far,cow,English_Speech,preschool,megan,,,,,,,,,female
lgJ9e,25,11,mal_plain,mal_sws,2,cow,book,cow,cow,book,lorry,mal_plain_mal_sws,critical,2/1/2017,11:20,left,true,2485,1,1_2_1_1,word_3_word_1_word_2,far,book,English_Speech,preschool,megan,,,,,,,,,female
lgJ9e,25,11,mal_plain,mal_sws,3,cow,book,cow,cow,book,lorry,mal_plain_mal_sws,critical,2/1/2017,11:20,right,false,3696,2,1_2_1_1,word_3_word_1_word_2,far,lorry,English_Speech,preschool,megan,,,,,,,,,female
