subject_id,trial_number,trial_id,plain,sws,instruction_number,sound1_item,sound2_item,sound3_item,top_image,left_image,right_image,sound_gender,trial_type,date_stamp,time_stamp,side_chosen,accuracy,rt,play_counter,order,pic_position,distance,chosen_pic,test_lang,testing_loc,tester,date_of_birth,ethnicity,native_lang,other_langs,parental_occ,dev_info,birth_order,num_siblings,gender
nzLmX,1,0,fem_plain,mal_sws,1,tractor,fireman,glasses,fireman,tractor,glasses,fem_plain_mal_sws,training,1/25/2017,10:48,left,true,3068,2,2_1_1_0,word_1_word_3_word_2,different,tractor,English_Speech,preschool,megan,,,,,,,,,female
nzLmX,1,0,fem_plain,mal_sws,2,tractor,fireman,glasses,fireman,tractor,glasses,fem_plain_mal_sws,training,1/25/2017,10:48,top_img,true,2080,2,2_1_1_0,word_1_word_3_word_2,different,fireman,English_Speech,preschool,megan,,,,,,,,,female
nzLmX,1,0,fem_plain,mal_sws,3,tractor,fireman,glasses,fireman,tractor,glasses,fem_plain_mal_sws,training,1/25/2017,10:48,right,true,4701,4,2_1_1_0,word_1_word_3_word_2,different,glasses,English_Speech,preschool,megan,,,,,,,,,female
nzLmX,2,21,fem_plain,mal_sws,1,sheep,eye,eye,frog,eye,sheep,fem_plain_mal_sws,critical,1/25/2017,10:48,right,true,2478,2,1_2_2_1,word_1_word_3_word_2,near,sheep,English_Speech,preschool,megan,,,,,,,,,female
nzLmX,2,21,fem_plain,mal_sws,2,sheep,eye,eye,frog,eye,sheep,fem_plain_mal_sws,critical,1/25/2017,10:48,left,true,2743,2,1_2_2_1,word_1_word_3_word_2,near,eye,English_Speech,preschool,megan,,,,,,,,,female
nzLmX,2,21,fem_plain,mal_sws,3,sheep,eye,eye,frog,eye,sheep,fem_plain_mal_sws,critical,1/25/2017,10:48,left,true,4328,4,1_2_2_1,word_1_word_3_word_2,near,eye,English_Speech,preschool,megan,,,,,,,,,female
nzLmX,3,6,fem_plain,mal_sws,1,bird,peas,carrot,peas,bird,carrot,fem_plain_mal_sws,critical,1/25/2017,10:48,left,true,2238,1,2_1_1_0,word_2_word_1_word_3,different,bird,English_Speech,preschool,megan,,,,,,,,,female
nzLmX,3,6,fem_plain,mal_sws,2,bird,peas,carrot,peas,bird,carrot,fem_plain_mal_sws,critical,1/25/2017,10:48,top_img,true,2058,2,2_1_1_0,word_2_word_1_word_3,different,peas,English_Speech,preschool,megan,,,,,,,,,female
nzLmX,3,6,fem_plain,mal_sws,3,bird,peas,carrot,peas,bird,carrot,fem_plain_mal_sws,critical,1/25/2017,10:48,right,true,4537,2,2_1_1_0,word_2_word_1_word_3,different,carrot,English_Speech,preschool,megan,,,,,,,,,female
nzLmX,4,22,fem_plain,mal_sws,1,dog,bike,doctor,dog,doctor,bike,fem_plain_mal_sws,critical,1/25/2017,10:48,top_img,true,2330,1,1_2_2_0,word_2_word_3_word_1,different,dog,English_Speech,preschool,megan,,,,,,,,,female
nzLmX,4,22,fem_plain,mal_sws,2,dog,bike,doctor,dog,doctor,bike,fem_plain_mal_sws,critical,1/25/2017,10:48,right,true,2483,2,1_2_2_0,word_2_word_3_word_1,different,bike,English_Speech,preschool,megan,,,,,,,,,female
nzLmX,4,22,fem_plain,mal_sws,3,dog,bike,doctor,dog,doctor,bike,fem_plain_mal_sws,critical,1/25/2017,10:48,left,true,3253,2,1_2_2_0,word_2_word_3_word_1,different,doctor,English_Speech,preschool,megan,,,,,,,,,female
nzLmX,5,1,fem_plain,mal_sws,1,train,spoon,baby,baby,spoon,train,fem_plain_mal_sws,critical,1/25/2017,10:48,right,true,2548,1,2_1_1_0,word_2_word_1_word_3,different,train,English_Speech,preschool,megan,,,,,,,,,female
nzLmX,5,1,fem_plain,mal_sws,2,train,spoon,baby,baby,spoon,train,fem_plain_mal_sws,critical,1/25/2017,10:48,left,true,2140,2,2_1_1_0,word_2_word_1_word_3,different,spoon,English_Speech,preschool,megan,,,,,,,,,female
nzLmX,5,1,fem_plain,mal_sws,3,train,spoon,baby,baby,spoon,train,fem_plain_mal_sws,critical,1/25/2017,10:48,top_img,true,2007,2,2_1_1_0,word_2_word_1_word_3,different,baby,English_Speech,preschool,megan,,,,,,,,,female
nzLmX,6,9,fem_plain,mal_sws,1,window,pizza,window,grapes,pizza,window,fem_plain_mal_sws,critical,1/25/2017,10:48,right,true,2295,2,1_2_1_1,word_3_word_1_word_2,far,window,English_Speech,preschool,megan,,,,,,,,,female
nzLmX,6,9,fem_plain,mal_sws,2,window,pizza,window,grapes,pizza,window,fem_plain_mal_sws,critical,1/25/2017,10:48,left,true,2168,2,1_2_1_1,word_3_word_1_word_2,far,pizza,English_Speech,preschool,megan,,,,,,,,,female
nzLmX,6,9,fem_plain,mal_sws,3,window,pizza,window,grapes,pizza,window,fem_plain_mal_sws,critical,1/25/2017,10:48,top_img,false,2111,2,1_2_1_1,word_3_word_1_word_2,far,grapes,English_Speech,preschool,megan,,,,,,,,,female
nzLmX,7,18,fem_plain,mal_sws,1,camera,raspberry,raspberry,ball,camera,raspberry,fem_plain_mal_sws,critical,1/25/2017,10:48,left,true,2716,1,2_1_1_1,word_1_word_3_word_2,near,camera,English_Speech,preschool,megan,,,,,,,,,female
nzLmX,7,18,fem_plain,mal_sws,2,camera,raspberry,raspberry,ball,camera,raspberry,fem_plain_mal_sws,critical,1/25/2017,10:48,right,true,2913,1,2_1_1_1,word_1_word_3_word_2,near,raspberry,English_Speech,preschool,megan,,,,,,,,,female
nzLmX,7,18,fem_plain,mal_sws,3,camera,raspberry,raspberry,ball,camera,raspberry,fem_plain_mal_sws,critical,1/25/2017,10:48,top_img,false,4430,4,2_1_1_1,word_1_word_3_word_2,near,ball,English_Speech,preschool,megan,,,,,,,,,female
nzLmX,8,24,fem_plain,mal_sws,1,socks,fish,sink,sink,fish,socks,fem_plain_mal_sws,critical,1/25/2017,10:48,right,true,2555,2,1_2_2_0,word_1_word_2_word_3,different,socks,English_Speech,preschool,megan,,,,,,,,,female
nzLmX,8,24,fem_plain,mal_sws,2,socks,fish,sink,sink,fish,socks,fem_plain_mal_sws,critical,1/25/2017,10:48,left,true,2266,2,1_2_2_0,word_1_word_2_word_3,different,fish,English_Speech,preschool,megan,,,,,,,,,female
nzLmX,8,24,fem_plain,mal_sws,3,socks,fish,sink,sink,fish,socks,fem_plain_mal_sws,critical,1/25/2017,10:48,top_img,true,2992,2,1_2_2_0,word_1_word_2_word_3,different,sink,English_Speech,preschool,megan,,,,,,,,,female
nzLmX,9,13,fem_plain,mal_sws,1,airplane,toothbrush,toothbrush,airplane,toothbrush,bread,fem_plain_mal_sws,critical,1/25/2017,10:48,top_img,true,2355,2,2_1_1_1,word_2_word_1_word_3,near,airplane,English_Speech,preschool,megan,,,,,,,,,female
nzLmX,9,13,fem_plain,mal_sws,2,airplane,toothbrush,toothbrush,airplane,toothbrush,bread,fem_plain_mal_sws,critical,1/25/2017,10:48,left,true,2023,2,2_1_1_1,word_2_word_1_word_3,near,toothbrush,English_Speech,preschool,megan,,,,,,,,,female
nzLmX,9,13,fem_plain,mal_sws,3,airplane,toothbrush,toothbrush,airplane,toothbrush,bread,fem_plain_mal_sws,critical,1/25/2017,10:48,left,true,2747,3,2_1_1_1,word_2_word_1_word_3,near,toothbrush,English_Speech,preschool,megan,,,,,,,,,female
nzLmX,10,5,fem_plain,mal_sws,1,car,orange,mouth,mouth,car,orange,fem_plain_mal_sws,critical,1/25/2017,10:48,left,true,2234,2,2_1_1_0,word_3_word_2_word_1,different,car,English_Speech,preschool,megan,,,,,,,,,female
nzLmX,10,5,fem_plain,mal_sws,2,car,orange,mouth,mouth,car,orange,fem_plain_mal_sws,critical,1/25/2017,10:48,right,true,2744,2,2_1_1_0,word_3_word_2_word_1,different,orange,English_Speech,preschool,megan,,,,,,,,,female
nzLmX,10,5,fem_plain,mal_sws,3,car,orange,mouth,mouth,car,orange,fem_plain_mal_sws,critical,1/25/2017,10:48,top_img,true,2266,2,2_1_1_0,word_3_word_2_word_1,different,mouth,English_Speech,preschool,megan,,,,,,,,,female
nzLmX,11,12,fem_plain,mal_sws,1,foot,gloves,yoghurt,foot,yoghurt,gloves,fem_plain_mal_sws,critical,1/25/2017,10:48,top_img,true,2237,2,2_1_1_0,word_1_word_2_word_3,different,foot,English_Speech,preschool,megan,,,,,,,,,female
nzLmX,11,12,fem_plain,mal_sws,2,foot,gloves,yoghurt,foot,yoghurt,gloves,fem_plain_mal_sws,critical,1/25/2017,10:48,right,true,2992,2,2_1_1_0,word_1_word_2_word_3,different,gloves,English_Speech,preschool,megan,,,,,,,,,female
nzLmX,11,12,fem_plain,mal_sws,3,foot,gloves,yoghurt,foot,yoghurt,gloves,fem_plain_mal_sws,critical,1/25/2017,10:48,left,true,2367,1,2_1_1_0,word_1_word_2_word_3,different,yoghurt,English_Speech,preschool,megan,,,,,,,,,female
nzLmX,12,17,fem_plain,mal_sws,1,ambulance,cake,ambulance,cake,hand,ambulance,fem_plain_mal_sws,critical,1/25/2017,10:48,right,true,2801,5,1_2_1_1,word_1_word_3_word_2,far,ambulance,English_Speech,preschool,megan,,,,,,,,,female
nzLmX,12,17,fem_plain,mal_sws,2,ambulance,cake,ambulance,cake,hand,ambulance,fem_plain_mal_sws,critical,1/25/2017,10:48,top_img,true,2856,4,1_2_1_1,word_1_word_3_word_2,far,cake,English_Speech,preschool,megan,,,,,,,,,female
nzLmX,12,17,fem_plain,mal_sws,3,ambulance,cake,ambulance,cake,hand,ambulance,fem_plain_mal_sws,critical,1/25/2017,10:48,left,false,2262,2,1_2_1_1,word_1_word_3_word_2,far,hand,English_Speech,preschool,megan,,,,,,,,,female
nzLmX,13,19,fem_plain,mal_sws,1,tree,building_blocks,building_blocks,building_blocks,tree,santa,fem_plain_mal_sws,critical,1/25/2017,10:48,left,true,2236,2,2_1_1_1,word_2_word_3_word_1,near,tree,English_Speech,preschool,megan,,,,,,,,,female
nzLmX,13,19,fem_plain,mal_sws,2,tree,building_blocks,building_blocks,building_blocks,tree,santa,fem_plain_mal_sws,critical,1/25/2017,10:48,top_img,true,2205,2,2_1_1_1,word_2_word_3_word_1,near,building_blocks,English_Speech,preschool,megan,,,,,,,,,female
nzLmX,13,19,fem_plain,mal_sws,3,tree,building_blocks,building_blocks,building_blocks,tree,santa,fem_plain_mal_sws,critical,1/25/2017,10:48,right,false,3009,2,2_1_1_1,word_2_word_3_word_1,near,santa,English_Speech,preschool,megan,,,,,,,,,female
nzLmX,14,20,fem_plain,mal_sws,1,rabbit,apple,rabbit,jumper,apple,rabbit,fem_plain_mal_sws,critical,1/25/2017,10:48,right,true,2367,2,2_1_2_1,word_1_word_3_word_2,far,rabbit,English_Speech,preschool,megan,,,,,,,,,female
nzLmX,14,20,fem_plain,mal_sws,2,rabbit,apple,rabbit,jumper,apple,rabbit,fem_plain_mal_sws,critical,1/25/2017,10:48,left,true,2350,2,2_1_2_1,word_1_word_3_word_2,far,apple,English_Speech,preschool,megan,,,,,,,,,female
nzLmX,14,20,fem_plain,mal_sws,3,rabbit,apple,rabbit,jumper,apple,rabbit,fem_plain_mal_sws,critical,1/25/2017,10:48,right,true,3662,2,2_1_2_1,word_1_word_3_word_2,far,rabbit,English_Speech,preschool,megan,,,,,,,,,female
nzLmX,15,11,fem_plain,mal_sws,1,lorry,book,cow,lorry,cow,book,fem_plain_mal_sws,critical,1/25/2017,10:48,top_img,true,2518,2,2_1_1_0,word_2_word_3_word_1,different,lorry,English_Speech,preschool,megan,,,,,,,,,female
nzLmX,15,11,fem_plain,mal_sws,2,lorry,book,cow,lorry,cow,book,fem_plain_mal_sws,critical,1/25/2017,10:48,right,true,2280,2,2_1_1_0,word_2_word_3_word_1,different,book,English_Speech,preschool,megan,,,,,,,,,female
nzLmX,15,11,fem_plain,mal_sws,3,lorry,book,cow,lorry,cow,book,fem_plain_mal_sws,critical,1/25/2017,10:48,left,true,4793,1,2_1_1_0,word_2_word_3_word_1,different,cow,English_Speech,preschool,megan,,,,,,,,,female
nzLmX,16,14,fem_plain,mal_sws,1,cheese,shoes,shoes,door,cheese,shoes,fem_plain_mal_sws,critical,1/25/2017,10:48,left,true,608,4,1_2_2_1,word_3_word_1_word_2,near,cheese,English_Speech,preschool,megan,,,,,,,,,female
nzLmX,16,14,fem_plain,mal_sws,2,cheese,shoes,shoes,door,cheese,shoes,fem_plain_mal_sws,critical,1/25/2017,10:48,right,true,2193,1,1_2_2_1,word_3_word_1_word_2,near,shoes,English_Speech,preschool,megan,,,,,,,,,female
nzLmX,16,14,fem_plain,mal_sws,3,cheese,shoes,shoes,door,cheese,shoes,fem_plain_mal_sws,critical,1/25/2017,10:48,right,true,2283,2,1_2_2_1,word_3_word_1_word_2,near,shoes,English_Speech,preschool,megan,,,,,,,,,female
nzLmX,17,8,fem_plain,mal_sws,1,ear,fire_engine,ear,ear,wellyboots,fire_engine,fem_plain_mal_sws,critical,1/25/2017,10:48,top_img,true,2428,4,1_2_1_1,word_3_word_1_word_2,far,ear,English_Speech,preschool,megan,,,,,,,,,female
nzLmX,17,8,fem_plain,mal_sws,2,ear,fire_engine,ear,ear,wellyboots,fire_engine,fem_plain_mal_sws,critical,1/25/2017,10:48,right,true,2913,1,1_2_1_1,word_3_word_1_word_2,far,fire_engine,English_Speech,preschool,megan,,,,,,,,,female
nzLmX,17,8,fem_plain,mal_sws,3,ear,fire_engine,ear,ear,wellyboots,fire_engine,fem_plain_mal_sws,critical,1/25/2017,10:48,top_img,true,3538,2,1_2_1_1,word_3_word_1_word_2,far,ear,English_Speech,preschool,megan,,,,,,,,,female
nzLmX,18,23,fem_plain,mal_sws,1,teddy_bear,bath,table,table,teddy_bear,bath,fem_plain_mal_sws,critical,1/25/2017,10:48,left,true,2726,2,1_2_2_0,word_3_word_2_word_1,different,teddy_bear,English_Speech,preschool,megan,,,,,,,,,female
nzLmX,18,23,fem_plain,mal_sws,2,teddy_bear,bath,table,table,teddy_bear,bath,fem_plain_mal_sws,critical,1/25/2017,10:48,right,true,2405,2,1_2_2_0,word_3_word_2_word_1,different,bath,English_Speech,preschool,megan,,,,,,,,,female
nzLmX,18,23,fem_plain,mal_sws,3,teddy_bear,bath,table,table,teddy_bear,bath,fem_plain_mal_sws,critical,1/25/2017,10:48,top_img,true,2699,2,1_2_2_0,word_3_word_2_word_1,different,table,English_Speech,preschool,megan,,,,,,,,,female
nzLmX,19,10,fem_plain,mal_sws,1,pig,tshirt,hat,hat,pig,tshirt,fem_plain_mal_sws,critical,1/25/2017,10:48,left,true,2001,4,2_1_2_0,word_3_word_1_word_2,different,pig,English_Speech,preschool,megan,,,,,,,,,female
nzLmX,19,10,fem_plain,mal_sws,2,pig,tshirt,hat,hat,pig,tshirt,fem_plain_mal_sws,critical,1/25/2017,10:48,right,true,3129,2,2_1_2_0,word_3_word_1_word_2,different,tshirt,English_Speech,preschool,megan,,,,,,,,,female
nzLmX,19,10,fem_plain,mal_sws,3,pig,tshirt,hat,hat,pig,tshirt,fem_plain_mal_sws,critical,1/25/2017,10:48,top_img,true,6734,4,2_1_2_0,word_3_word_1_word_2,different,hat,English_Speech,preschool,megan,,,,,,,,,female
nzLmX,20,7,fem_plain,mal_sws,1,horse,lolly,horse,horse,lolly,cat,fem_plain_mal_sws,critical,1/25/2017,10:48,top_img,true,2128,2,2_1_2_1,word_2_word_1_word_3,far,horse,English_Speech,preschool,megan,,,,,,,,,female
nzLmX,20,7,fem_plain,mal_sws,2,horse,lolly,horse,horse,lolly,cat,fem_plain_mal_sws,critical,1/25/2017,10:48,left,true,3239,1,2_1_2_1,word_2_word_1_word_3,far,lolly,English_Speech,preschool,megan,,,,,,,,,female
nzLmX,20,7,fem_plain,mal_sws,3,horse,lolly,horse,horse,lolly,cat,fem_plain_mal_sws,critical,1/25/2017,10:48,left,false,2534,3,2_1_2_1,word_2_word_1_word_3,far,lolly,English_Speech,preschool,megan,,,,,,,,,female
nzLmX,21,16,fem_plain,mal_sws,1,banana,paintbrush,paintbrush,banana,paintbrush,chair,fem_plain_mal_sws,critical,1/25/2017,10:48,top_img,true,1893,4,1_2_2_1,word_2_word_1_word_3,near,banana,English_Speech,preschool,megan,,,,,,,,,female
nzLmX,21,16,fem_plain,mal_sws,2,banana,paintbrush,paintbrush,banana,paintbrush,chair,fem_plain_mal_sws,critical,1/25/2017,10:48,left,true,2507,2,1_2_2_1,word_2_word_1_word_3,near,paintbrush,English_Speech,preschool,megan,,,,,,,,,female
nzLmX,21,16,fem_plain,mal_sws,3,banana,paintbrush,paintbrush,banana,paintbrush,chair,fem_plain_mal_sws,critical,1/25/2017,10:48,left,true,3729,1,1_2_2_1,word_2_word_1_word_3,near,paintbrush,English_Speech,preschool,megan,,,,,,,,,female
nzLmX,22,15,fem_plain,mal_sws,1,slide,beans,slide,pencil,slide,beans,fem_plain_mal_sws,critical,1/25/2017,10:48,left,true,3741,1,2_1_2_1,word_2_word_1_word_3,far,slide,English_Speech,preschool,megan,,,,,,,,,female
nzLmX,22,15,fem_plain,mal_sws,2,slide,beans,slide,pencil,slide,beans,fem_plain_mal_sws,critical,1/25/2017,10:48,right,true,2270,2,2_1_2_1,word_2_word_1_word_3,far,beans,English_Speech,preschool,megan,,,,,,,,,female
nzLmX,22,15,fem_plain,mal_sws,3,slide,beans,slide,pencil,slide,beans,fem_plain_mal_sws,critical,1/25/2017,10:48,left,true,4399,2,2_1_2_1,word_2_word_1_word_3,far,slide,English_Speech,preschool,megan,,,,,,,,,female
nzLmX,23,2,fem_plain,mal_sws,1,fork,chicken,bed,chicken,fork,bed,fem_plain_mal_sws,critical,1/25/2017,10:48,left,true,2339,1,2_1_2_0,word_2_word_3_word_1,different,fork,English_Speech,preschool,megan,,,,,,,,,female
nzLmX,23,2,fem_plain,mal_sws,2,fork,chicken,bed,chicken,fork,bed,fem_plain_mal_sws,critical,1/25/2017,10:48,top_img,true,2845,2,2_1_2_0,word_2_word_3_word_1,different,chicken,English_Speech,preschool,megan,,,,,,,,,female
nzLmX,23,2,fem_plain,mal_sws,3,fork,chicken,bed,chicken,fork,bed,fem_plain_mal_sws,critical,1/25/2017,10:48,top_img,false,5124,4,2_1_2_0,word_2_word_3_word_1,different,chicken,English_Speech,preschool,megan,,,,,,,,,female
nzLmX,24,4,fem_plain,mal_sws,1,coat,strawberry,flower,coat,flower,strawberry,fem_plain_mal_sws,critical,1/25/2017,10:48,top_img,true,2456,2,2_1_2_0,word_1_word_3_word_2,different,coat,English_Speech,preschool,megan,,,,,,,,,female
nzLmX,24,4,fem_plain,mal_sws,2,coat,strawberry,flower,coat,flower,strawberry,fem_plain_mal_sws,critical,1/25/2017,10:48,right,true,2223,2,2_1_2_0,word_1_word_3_word_2,different,strawberry,English_Speech,preschool,megan,,,,,,,,,female
nzLmX,24,4,fem_plain,mal_sws,3,coat,strawberry,flower,coat,flower,strawberry,fem_plain_mal_sws,critical,1/25/2017,10:48,right,false,1668,2,2_1_2_0,word_1_word_3_word_2,different,strawberry,English_Speech,preschool,megan,,,,,,,,,female
nzLmX,25,3,fem_plain,mal_sws,1,telephone,trousers,telephone,nose,telephone,trousers,fem_plain_mal_sws,critical,1/25/2017,10:48,left,true,3815,2,1_2_1_1,word_2_word_3_word_1,far,telephone,English_Speech,preschool,megan,,,,,,,,,female
nzLmX,25,3,fem_plain,mal_sws,2,telephone,trousers,telephone,nose,telephone,trousers,fem_plain_mal_sws,critical,1/25/2017,10:48,right,true,2318,2,1_2_1_1,word_2_word_3_word_1,far,trousers,English_Speech,preschool,megan,,,,,,,,,female
nzLmX,25,3,fem_plain,mal_sws,3,telephone,trousers,telephone,nose,telephone,trousers,fem_plain_mal_sws,critical,1/25/2017,10:48,left,true,3294,2,1_2_1_1,word_2_word_3_word_1,far,telephone,English_Speech,preschool,megan,,,,,,,,,female
