subject_id,trial_number,trial_id,plain,sws,instruction_number,sound1_item,sound2_item,sound3_item,top_image,left_image,right_image,sound_gender,trial_type,date_stamp,time_stamp,side_chosen,accuracy,rt,play_counter,order,pic_position,distance,chosen_pic,test_lang,testing_loc,tester,date_of_birth,ethnicity,native_lang,other_langs,parental_occ,dev_info,birth_order,num_siblings,gender
u1Tvb,1,0,mal_plain,mal_sws,1,tractor,glasses,fireman,glasses,fireman,tractor,mal_plain_mal_sws,training,1/11/2017,11:17,right,true,3998,1,2_1_1_0,word_2_word_1_word_3,different,tractor,English_Speech,preschool,megan,,,,,,,,,male
u1Tvb,1,0,mal_plain,mal_sws,2,tractor,glasses,fireman,glasses,fireman,tractor,mal_plain_mal_sws,training,1/11/2017,11:17,top_img,true,2214,2,2_1_1_0,word_2_word_1_word_3,different,glasses,English_Speech,preschool,megan,,,,,,,,,male
u1Tvb,1,0,mal_plain,mal_sws,3,tractor,glasses,fireman,glasses,fireman,tractor,mal_plain_mal_sws,training,1/11/2017,11:17,left,true,4414,3,2_1_1_0,word_2_word_1_word_3,different,fireman,English_Speech,preschool,megan,,,,,,,,,male
u1Tvb,2,24,mal_plain,mal_sws,1,fish,sink,sink,socks,fish,sink,mal_plain_mal_sws,critical,1/11/2017,11:17,left,true,2730,2,1_2_2_1,word_3_word_2_word_1,near,fish,English_Speech,preschool,megan,,,,,,,,,male
u1Tvb,2,24,mal_plain,mal_sws,2,fish,sink,sink,socks,fish,sink,mal_plain_mal_sws,critical,1/11/2017,11:17,right,true,2743,2,1_2_2_1,word_3_word_2_word_1,near,sink,English_Speech,preschool,megan,,,,,,,,,male
u1Tvb,2,24,mal_plain,mal_sws,3,fish,sink,sink,socks,fish,sink,mal_plain_mal_sws,critical,1/11/2017,11:17,top_img,false,2654,2,1_2_2_1,word_3_word_2_word_1,near,socks,English_Speech,preschool,megan,,,,,,,,,male
u1Tvb,3,2,mal_plain,mal_sws,1,chicken,fork,chicken,bed,fork,chicken,mal_plain_mal_sws,critical,1/11/2017,11:17,right,true,3013,2,1_2_1_1,word_1_word_3_word_2,far,chicken,English_Speech,preschool,megan,,,,,,,,,male
u1Tvb,3,2,mal_plain,mal_sws,2,chicken,fork,chicken,bed,fork,chicken,mal_plain_mal_sws,critical,1/11/2017,11:17,left,true,2776,1,1_2_1_1,word_1_word_3_word_2,far,fork,English_Speech,preschool,megan,,,,,,,,,male
u1Tvb,3,2,mal_plain,mal_sws,3,chicken,fork,chicken,bed,fork,chicken,mal_plain_mal_sws,critical,1/11/2017,11:17,top_img,false,2877,3,1_2_1_1,word_1_word_3_word_2,far,bed,English_Speech,preschool,megan,,,,,,,,,male
u1Tvb,4,19,mal_plain,mal_sws,1,santa,tree,santa,santa,building_blocks,tree,mal_plain_mal_sws,critical,1/11/2017,11:17,top_img,true,2813,2,1_2_1_1,word_1_word_2_word_3,far,santa,English_Speech,preschool,megan,,,,,,,,,male
u1Tvb,4,19,mal_plain,mal_sws,2,santa,tree,santa,santa,building_blocks,tree,mal_plain_mal_sws,critical,1/11/2017,11:17,right,true,2527,2,1_2_1_1,word_1_word_2_word_3,far,tree,English_Speech,preschool,megan,,,,,,,,,male
u1Tvb,4,19,mal_plain,mal_sws,3,santa,tree,santa,santa,building_blocks,tree,mal_plain_mal_sws,critical,1/11/2017,11:17,left,false,2927,2,1_2_1_1,word_1_word_2_word_3,far,building_blocks,English_Speech,preschool,megan,,,,,,,,,male
u1Tvb,5,13,mal_plain,mal_sws,1,toothbrush,bread,airplane,bread,airplane,toothbrush,mal_plain_mal_sws,critical,1/11/2017,11:17,right,true,2729,1,2_1_2_0,word_3_word_2_word_1,different,toothbrush,English_Speech,preschool,megan,,,,,,,,,male
u1Tvb,5,13,mal_plain,mal_sws,2,toothbrush,bread,airplane,bread,airplane,toothbrush,mal_plain_mal_sws,critical,1/11/2017,11:17,top_img,true,3293,1,2_1_2_0,word_3_word_2_word_1,different,bread,English_Speech,preschool,megan,,,,,,,,,male
u1Tvb,5,13,mal_plain,mal_sws,3,toothbrush,bread,airplane,bread,airplane,toothbrush,mal_plain_mal_sws,critical,1/11/2017,11:17,left,true,2097,2,2_1_2_0,word_3_word_2_word_1,different,airplane,English_Speech,preschool,megan,,,,,,,,,male
u1Tvb,6,22,mal_plain,mal_sws,1,dog,bike,dog,doctor,dog,bike,mal_plain_mal_sws,critical,1/11/2017,11:17,left,true,2417,1,1_2_1_1,word_3_word_2_word_1,far,dog,English_Speech,preschool,megan,,,,,,,,,male
u1Tvb,6,22,mal_plain,mal_sws,2,dog,bike,dog,doctor,dog,bike,mal_plain_mal_sws,critical,1/11/2017,11:17,right,true,2372,3,1_2_1_1,word_3_word_2_word_1,far,bike,English_Speech,preschool,megan,,,,,,,,,male
u1Tvb,6,22,mal_plain,mal_sws,3,dog,bike,dog,doctor,dog,bike,mal_plain_mal_sws,critical,1/11/2017,11:17,top_img,false,2202,1,1_2_1_1,word_3_word_2_word_1,far,doctor,English_Speech,preschool,megan,,,,,,,,,male
u1Tvb,7,8,mal_plain,mal_sws,1,ear,fire_engine,wellyboots,ear,wellyboots,fire_engine,mal_plain_mal_sws,critical,1/11/2017,11:17,top_img,true,2277,2,2_1_1_0,word_3_word_1_word_2,different,ear,English_Speech,preschool,megan,,,,,,,,,male
u1Tvb,7,8,mal_plain,mal_sws,2,ear,fire_engine,wellyboots,ear,wellyboots,fire_engine,mal_plain_mal_sws,critical,1/11/2017,11:17,right,true,2731,2,2_1_1_0,word_3_word_1_word_2,different,fire_engine,English_Speech,preschool,megan,,,,,,,,,male
u1Tvb,7,8,mal_plain,mal_sws,3,ear,fire_engine,wellyboots,ear,wellyboots,fire_engine,mal_plain_mal_sws,critical,1/11/2017,11:17,left,true,2490,2,2_1_1_0,word_3_word_1_word_2,different,wellyboots,English_Speech,preschool,megan,,,,,,,,,male
u1Tvb,8,11,mal_plain,mal_sws,1,cow,lorry,book,book,cow,lorry,mal_plain_mal_sws,critical,1/11/2017,11:17,left,true,3099,1,1_2_2_0,word_1_word_3_word_2,different,cow,English_Speech,preschool,megan,,,,,,,,,male
u1Tvb,8,11,mal_plain,mal_sws,2,cow,lorry,book,book,cow,lorry,mal_plain_mal_sws,critical,1/11/2017,11:17,right,true,2861,2,1_2_2_0,word_1_word_3_word_2,different,lorry,English_Speech,preschool,megan,,,,,,,,,male
u1Tvb,8,11,mal_plain,mal_sws,3,cow,lorry,book,book,cow,lorry,mal_plain_mal_sws,critical,1/11/2017,11:17,top_img,true,2635,1,1_2_2_0,word_1_word_3_word_2,different,book,English_Speech,preschool,megan,,,,,,,,,male
u1Tvb,9,14,mal_plain,mal_sws,1,door,shoes,cheese,shoes,cheese,door,mal_plain_mal_sws,critical,1/11/2017,11:17,right,true,3609,1,2_1_2_0,word_2_word_1_word_3,different,door,English_Speech,preschool,megan,,,,,,,,,male
u1Tvb,9,14,mal_plain,mal_sws,2,door,shoes,cheese,shoes,cheese,door,mal_plain_mal_sws,critical,1/11/2017,11:17,top_img,true,2456,2,2_1_2_0,word_2_word_1_word_3,different,shoes,English_Speech,preschool,megan,,,,,,,,,male
u1Tvb,9,14,mal_plain,mal_sws,3,door,shoes,cheese,shoes,cheese,door,mal_plain_mal_sws,critical,1/11/2017,11:17,left,true,2529,2,2_1_2_0,word_2_word_1_word_3,different,cheese,English_Speech,preschool,megan,,,,,,,,,male
u1Tvb,10,16,mal_plain,mal_sws,1,paintbrush,chair,chair,banana,chair,paintbrush,mal_plain_mal_sws,critical,1/11/2017,11:17,right,true,3221,2,2_1_1_1,word_2_word_3_word_1,near,paintbrush,English_Speech,preschool,megan,,,,,,,,,male
u1Tvb,10,16,mal_plain,mal_sws,2,paintbrush,chair,chair,banana,chair,paintbrush,mal_plain_mal_sws,critical,1/11/2017,11:17,left,true,2937,2,2_1_1_1,word_2_word_3_word_1,near,chair,English_Speech,preschool,megan,,,,,,,,,male
u1Tvb,10,16,mal_plain,mal_sws,3,paintbrush,chair,chair,banana,chair,paintbrush,mal_plain_mal_sws,critical,1/11/2017,11:17,top_img,false,3400,2,2_1_1_1,word_2_word_3_word_1,near,banana,English_Speech,preschool,megan,,,,,,,,,male
u1Tvb,11,21,mal_plain,mal_sws,1,frog,eye,eye,sheep,eye,frog,mal_plain_mal_sws,critical,1/11/2017,11:17,right,true,3438,1,2_1_1_1,word_2_word_3_word_1,near,frog,English_Speech,preschool,megan,,,,,,,,,male
u1Tvb,11,21,mal_plain,mal_sws,2,frog,eye,eye,sheep,eye,frog,mal_plain_mal_sws,critical,1/11/2017,11:17,left,true,2506,1,2_1_1_1,word_2_word_3_word_1,near,eye,English_Speech,preschool,megan,,,,,,,,,male
u1Tvb,11,21,mal_plain,mal_sws,3,frog,eye,eye,sheep,eye,frog,mal_plain_mal_sws,critical,1/11/2017,11:17,top_img,false,2326,2,2_1_1_1,word_2_word_3_word_1,near,sheep,English_Speech,preschool,megan,,,,,,,,,male
u1Tvb,12,7,mal_plain,mal_sws,1,cat,horse,horse,horse,lolly,cat,mal_plain_mal_sws,critical,1/11/2017,11:17,right,true,2729,2,1_2_2_1,word_2_word_1_word_3,near,cat,English_Speech,preschool,megan,,,,,,,,,male
u1Tvb,12,7,mal_plain,mal_sws,2,cat,horse,horse,horse,lolly,cat,mal_plain_mal_sws,critical,1/11/2017,11:17,top_img,true,2731,2,1_2_2_1,word_2_word_1_word_3,near,horse,English_Speech,preschool,megan,,,,,,,,,male
u1Tvb,12,7,mal_plain,mal_sws,3,cat,horse,horse,horse,lolly,cat,mal_plain_mal_sws,critical,1/11/2017,11:17,left,false,2591,1,1_2_2_1,word_2_word_1_word_3,near,lolly,English_Speech,preschool,megan,,,,,,,,,male
u1Tvb,13,12,mal_plain,mal_sws,1,gloves,yoghurt,foot,yoghurt,gloves,foot,mal_plain_mal_sws,critical,1/11/2017,11:17,left,true,2830,2,1_2_2_0,word_2_word_3_word_1,different,gloves,English_Speech,preschool,megan,,,,,,,,,male
u1Tvb,13,12,mal_plain,mal_sws,2,gloves,yoghurt,foot,yoghurt,gloves,foot,mal_plain_mal_sws,critical,1/11/2017,11:17,top_img,true,2328,2,1_2_2_0,word_2_word_3_word_1,different,yoghurt,English_Speech,preschool,megan,,,,,,,,,male
u1Tvb,13,12,mal_plain,mal_sws,3,gloves,yoghurt,foot,yoghurt,gloves,foot,mal_plain_mal_sws,critical,1/11/2017,11:17,right,true,2631,2,1_2_2_0,word_2_word_3_word_1,different,foot,English_Speech,preschool,megan,,,,,,,,,male
u1Tvb,14,4,mal_plain,mal_sws,1,coat,flower,strawberry,coat,strawberry,flower,mal_plain_mal_sws,critical,1/11/2017,11:17,top_img,true,2655,2,2_1_2_0,word_1_word_2_word_3,different,coat,English_Speech,preschool,megan,,,,,,,,,male
u1Tvb,14,4,mal_plain,mal_sws,2,coat,flower,strawberry,coat,strawberry,flower,mal_plain_mal_sws,critical,1/11/2017,11:17,right,true,2211,2,2_1_2_0,word_1_word_2_word_3,different,flower,English_Speech,preschool,megan,,,,,,,,,male
u1Tvb,14,4,mal_plain,mal_sws,3,coat,flower,strawberry,coat,strawberry,flower,mal_plain_mal_sws,critical,1/11/2017,11:17,left,true,2384,1,2_1_2_0,word_1_word_2_word_3,different,strawberry,English_Speech,preschool,megan,,,,,,,,,male
u1Tvb,15,10,mal_plain,mal_sws,1,pig,tshirt,pig,tshirt,pig,hat,mal_plain_mal_sws,critical,1/11/2017,11:17,left,true,2705,1,2_1_2_1,word_2_word_1_word_3,far,pig,English_Speech,preschool,megan,,,,,,,,,male
u1Tvb,15,10,mal_plain,mal_sws,2,pig,tshirt,pig,tshirt,pig,hat,mal_plain_mal_sws,critical,1/11/2017,11:17,top_img,true,3247,1,2_1_2_1,word_2_word_1_word_3,far,tshirt,English_Speech,preschool,megan,,,,,,,,,male
u1Tvb,15,10,mal_plain,mal_sws,3,pig,tshirt,pig,tshirt,pig,hat,mal_plain_mal_sws,critical,1/11/2017,11:17,right,false,2229,2,2_1_2_1,word_2_word_1_word_3,far,hat,English_Speech,preschool,megan,,,,,,,,,male
u1Tvb,16,1,mal_plain,mal_sws,1,spoon,baby,train,spoon,train,baby,mal_plain_mal_sws,critical,1/11/2017,11:17,top_img,true,2251,1,2_1_1_0,word_1_word_3_word_2,different,spoon,English_Speech,preschool,megan,,,,,,,,,male
u1Tvb,16,1,mal_plain,mal_sws,2,spoon,baby,train,spoon,train,baby,mal_plain_mal_sws,critical,1/11/2017,11:17,right,true,1739,2,2_1_1_0,word_1_word_3_word_2,different,baby,English_Speech,preschool,megan,,,,,,,,,male
u1Tvb,16,1,mal_plain,mal_sws,3,spoon,baby,train,spoon,train,baby,mal_plain_mal_sws,critical,1/11/2017,11:17,left,true,1899,1,2_1_1_0,word_1_word_3_word_2,different,train,English_Speech,preschool,megan,,,,,,,,,male
u1Tvb,17,17,mal_plain,mal_sws,1,hand,ambulance,hand,ambulance,cake,hand,mal_plain_mal_sws,critical,1/11/2017,11:17,right,true,2631,1,2_1_2_1,word_2_word_1_word_3,far,hand,English_Speech,preschool,megan,,,,,,,,,male
u1Tvb,17,17,mal_plain,mal_sws,2,hand,ambulance,hand,ambulance,cake,hand,mal_plain_mal_sws,critical,1/11/2017,11:17,top_img,true,2578,1,2_1_2_1,word_2_word_1_word_3,far,ambulance,English_Speech,preschool,megan,,,,,,,,,male
u1Tvb,17,17,mal_plain,mal_sws,3,hand,ambulance,hand,ambulance,cake,hand,mal_plain_mal_sws,critical,1/11/2017,11:17,left,false,2623,1,2_1_2_1,word_2_word_1_word_3,far,cake,English_Speech,preschool,megan,,,,,,,,,male
u1Tvb,18,15,mal_plain,mal_sws,1,slide,beans,beans,beans,pencil,slide,mal_plain_mal_sws,critical,1/11/2017,11:17,right,true,3552,2,1_2_2_1,word_3_word_2_word_1,near,slide,English_Speech,preschool,megan,,,,,,,,,male
u1Tvb,18,15,mal_plain,mal_sws,2,slide,beans,beans,beans,pencil,slide,mal_plain_mal_sws,critical,1/11/2017,11:17,top_img,true,2197,4,1_2_2_1,word_3_word_2_word_1,near,beans,English_Speech,preschool,megan,,,,,,,,,male
u1Tvb,18,15,mal_plain,mal_sws,3,slide,beans,beans,beans,pencil,slide,mal_plain_mal_sws,critical,1/11/2017,11:17,left,false,4507,2,1_2_2_1,word_3_word_2_word_1,near,pencil,English_Speech,preschool,megan,,,,,,,,,male
u1Tvb,19,5,mal_plain,mal_sws,1,car,mouth,mouth,car,mouth,orange,mal_plain_mal_sws,critical,1/11/2017,11:17,top_img,true,2155,2,2_1_1_1,word_2_word_3_word_1,near,car,English_Speech,preschool,megan,,,,,,,,,male
u1Tvb,19,5,mal_plain,mal_sws,2,car,mouth,mouth,car,mouth,orange,mal_plain_mal_sws,critical,1/11/2017,11:17,left,true,2344,1,2_1_1_1,word_2_word_3_word_1,near,mouth,English_Speech,preschool,megan,,,,,,,,,male
u1Tvb,19,5,mal_plain,mal_sws,3,car,mouth,mouth,car,mouth,orange,mal_plain_mal_sws,critical,1/11/2017,11:17,right,false,2494,2,2_1_1_1,word_2_word_3_word_1,near,orange,English_Speech,preschool,megan,,,,,,,,,male
u1Tvb,20,18,mal_plain,mal_sws,1,ball,camera,raspberry,ball,camera,raspberry,mal_plain_mal_sws,critical,1/11/2017,11:17,top_img,true,2702,3,2_1_1_0,word_1_word_3_word_2,different,ball,English_Speech,preschool,megan,,,,,,,,,male
u1Tvb,20,18,mal_plain,mal_sws,2,ball,camera,raspberry,ball,camera,raspberry,mal_plain_mal_sws,critical,1/11/2017,11:17,left,true,2758,2,2_1_1_0,word_1_word_3_word_2,different,camera,English_Speech,preschool,megan,,,,,,,,,male
u1Tvb,20,18,mal_plain,mal_sws,3,ball,camera,raspberry,ball,camera,raspberry,mal_plain_mal_sws,critical,1/11/2017,11:17,right,true,1593,1,2_1_1_0,word_1_word_3_word_2,different,raspberry,English_Speech,preschool,megan,,,,,,,,,male
u1Tvb,21,3,mal_plain,mal_sws,1,telephone,trousers,telephone,nose,telephone,trousers,mal_plain_mal_sws,critical,1/11/2017,11:17,left,true,3656,2,2_1_2_1,word_2_word_3_word_1,far,telephone,English_Speech,preschool,megan,,,,,,,,,male
u1Tvb,21,3,mal_plain,mal_sws,2,telephone,trousers,telephone,nose,telephone,trousers,mal_plain_mal_sws,critical,1/11/2017,11:17,right,true,2306,2,2_1_2_1,word_2_word_3_word_1,far,trousers,English_Speech,preschool,megan,,,,,,,,,male
u1Tvb,21,3,mal_plain,mal_sws,3,telephone,trousers,telephone,nose,telephone,trousers,mal_plain_mal_sws,critical,1/11/2017,11:17,top_img,false,2702,2,2_1_2_1,word_2_word_3_word_1,far,nose,English_Speech,preschool,megan,,,,,,,,,male
u1Tvb,22,20,mal_plain,mal_sws,1,rabbit,jumper,apple,apple,jumper,rabbit,mal_plain_mal_sws,critical,1/11/2017,11:17,right,true,2546,2,2_1_1_0,word_3_word_1_word_2,different,rabbit,English_Speech,preschool,megan,,,,,,,,,male
u1Tvb,22,20,mal_plain,mal_sws,2,rabbit,jumper,apple,apple,jumper,rabbit,mal_plain_mal_sws,critical,1/11/2017,11:17,left,true,2048,2,2_1_1_0,word_3_word_1_word_2,different,jumper,English_Speech,preschool,megan,,,,,,,,,male
u1Tvb,22,20,mal_plain,mal_sws,3,rabbit,jumper,apple,apple,jumper,rabbit,mal_plain_mal_sws,critical,1/11/2017,11:17,top_img,true,2222,2,2_1_1_0,word_3_word_1_word_2,different,apple,English_Speech,preschool,megan,,,,,,,,,male
u1Tvb,23,9,mal_plain,mal_sws,1,grapes,window,pizza,pizza,window,grapes,mal_plain_mal_sws,critical,1/11/2017,11:17,right,true,2434,2,2_1_1_0,word_1_word_2_word_3,different,grapes,English_Speech,preschool,megan,,,,,,,,,male
u1Tvb,23,9,mal_plain,mal_sws,2,grapes,window,pizza,pizza,window,grapes,mal_plain_mal_sws,critical,1/11/2017,11:17,left,true,2462,2,2_1_1_0,word_1_word_2_word_3,different,window,English_Speech,preschool,megan,,,,,,,,,male
u1Tvb,23,9,mal_plain,mal_sws,3,grapes,window,pizza,pizza,window,grapes,mal_plain_mal_sws,critical,1/11/2017,11:17,top_img,true,1586,2,2_1_1_0,word_1_word_2_word_3,different,pizza,English_Speech,preschool,megan,,,,,,,,,male
u1Tvb,24,23,mal_plain,mal_sws,1,bath,teddy_bear,table,teddy_bear,table,bath,mal_plain_mal_sws,critical,1/11/2017,11:17,right,true,2403,1,1_2_2_0,word_2_word_3_word_1,different,bath,English_Speech,preschool,megan,,,,,,,,,male
u1Tvb,24,23,mal_plain,mal_sws,2,bath,teddy_bear,table,teddy_bear,table,bath,mal_plain_mal_sws,critical,1/11/2017,11:17,top_img,true,2125,2,1_2_2_0,word_2_word_3_word_1,different,teddy_bear,English_Speech,preschool,megan,,,,,,,,,male
u1Tvb,24,23,mal_plain,mal_sws,3,bath,teddy_bear,table,teddy_bear,table,bath,mal_plain_mal_sws,critical,1/11/2017,11:17,left,true,1965,2,1_2_2_0,word_2_word_3_word_1,different,table,English_Speech,preschool,megan,,,,,,,,,male
u1Tvb,25,6,mal_plain,mal_sws,1,bird,carrot,bird,carrot,peas,bird,mal_plain_mal_sws,critical,1/11/2017,11:17,right,true,2538,2,1_2_1_1,word_3_word_2_word_1,far,bird,English_Speech,preschool,megan,,,,,,,,,male
u1Tvb,25,6,mal_plain,mal_sws,2,bird,carrot,bird,carrot,peas,bird,mal_plain_mal_sws,critical,1/11/2017,11:17,top_img,true,2072,1,1_2_1_1,word_3_word_2_word_1,far,carrot,English_Speech,preschool,megan,,,,,,,,,male
u1Tvb,25,6,mal_plain,mal_sws,3,bird,carrot,bird,carrot,peas,bird,mal_plain_mal_sws,critical,1/11/2017,11:17,left,false,1583,2,1_2_1_1,word_3_word_2_word_1,far,peas,English_Speech,preschool,megan,,,,,,,,,male
