subject_id,trial_number,trial_id,plain,sws,instruction_number,sound1_item,sound2_item,sound3_item,top_image,left_image,right_image,sound_gender,trial_type,date_stamp,time_stamp,side_chosen,accuracy,rt,play_counter,order,pic_position,distance,chosen_pic,test_lang,testing_loc,tester,date_of_birth,ethnicity,native_lang,other_langs,parental_occ,dev_info,birth_order,num_siblings,gender
uWskH,1,0,mal_plain,mal_sws,1,tractor,fireman,tractor,tractor,glasses,fireman,mal_plain_mal_sws,training,2/1/2017,9:54,top_img,true,3691,4,2_1_2_1,word_3_word_2_word_1,far,tractor,English_Speech,preschool,megan,,,,,,,,,male
uWskH,1,0,mal_plain,mal_sws,2,tractor,fireman,tractor,tractor,glasses,fireman,mal_plain_mal_sws,training,2/1/2017,9:54,right,true,4148,6,2_1_2_1,word_3_word_2_word_1,far,fireman,English_Speech,preschool,megan,,,,,,,,,male
uWskH,1,0,mal_plain,mal_sws,3,tractor,fireman,tractor,tractor,glasses,fireman,mal_plain_mal_sws,training,2/1/2017,9:54,top_img,true,178,4,2_1_2_1,word_3_word_2_word_1,far,tractor,English_Speech,preschool,megan,,,,,,,,,male
uWskH,2,16,mal_plain,mal_sws,1,chair,paintbrush,banana,paintbrush,banana,chair,mal_plain_mal_sws,critical,2/1/2017,9:54,right,true,2996,2,2_1_2_0,word_1_word_2_word_3,different,chair,English_Speech,preschool,megan,,,,,,,,,male
uWskH,2,16,mal_plain,mal_sws,2,chair,paintbrush,banana,paintbrush,banana,chair,mal_plain_mal_sws,critical,2/1/2017,9:54,top_img,true,2929,2,2_1_2_0,word_1_word_2_word_3,different,paintbrush,English_Speech,preschool,megan,,,,,,,,,male
uWskH,2,16,mal_plain,mal_sws,3,chair,paintbrush,banana,paintbrush,banana,chair,mal_plain_mal_sws,critical,2/1/2017,9:54,right,false,7651,2,2_1_2_0,word_1_word_2_word_3,different,chair,English_Speech,preschool,megan,,,,,,,,,male
uWskH,3,1,mal_plain,mal_sws,1,baby,spoon,baby,baby,spoon,train,mal_plain_mal_sws,critical,2/1/2017,9:54,top_img,true,2320,2,1_2_1_1,word_2_word_1_word_3,far,baby,English_Speech,preschool,megan,,,,,,,,,male
uWskH,3,1,mal_plain,mal_sws,2,baby,spoon,baby,baby,spoon,train,mal_plain_mal_sws,critical,2/1/2017,9:54,left,true,2222,1,1_2_1_1,word_2_word_1_word_3,far,spoon,English_Speech,preschool,megan,,,,,,,,,male
uWskH,3,1,mal_plain,mal_sws,3,baby,spoon,baby,baby,spoon,train,mal_plain_mal_sws,critical,2/1/2017,9:54,right,false,5506,2,1_2_1_1,word_2_word_1_word_3,far,train,English_Speech,preschool,megan,,,,,,,,,male
uWskH,4,24,mal_plain,mal_sws,1,socks,fish,fish,socks,fish,sink,mal_plain_mal_sws,critical,2/1/2017,9:54,top_img,true,2579,2,1_2_2_1,word_3_word_2_word_1,near,socks,English_Speech,preschool,megan,,,,,,,,,male
uWskH,4,24,mal_plain,mal_sws,2,socks,fish,fish,socks,fish,sink,mal_plain_mal_sws,critical,2/1/2017,9:54,left,true,2317,1,1_2_2_1,word_3_word_2_word_1,near,fish,English_Speech,preschool,megan,,,,,,,,,male
uWskH,4,24,mal_plain,mal_sws,3,socks,fish,fish,socks,fish,sink,mal_plain_mal_sws,critical,2/1/2017,9:54,right,false,2832,2,1_2_2_1,word_3_word_2_word_1,near,sink,English_Speech,preschool,megan,,,,,,,,,male
uWskH,5,6,mal_plain,mal_sws,1,bird,peas,carrot,bird,carrot,peas,mal_plain_mal_sws,critical,2/1/2017,9:54,top_img,true,2033,2,2_1_1_0,word_1_word_3_word_2,different,bird,English_Speech,preschool,megan,,,,,,,,,male
uWskH,5,6,mal_plain,mal_sws,2,bird,peas,carrot,bird,carrot,peas,mal_plain_mal_sws,critical,2/1/2017,9:54,right,true,3732,2,2_1_1_0,word_1_word_3_word_2,different,peas,English_Speech,preschool,megan,,,,,,,,,male
uWskH,5,6,mal_plain,mal_sws,3,bird,peas,carrot,bird,carrot,peas,mal_plain_mal_sws,critical,2/1/2017,9:54,left,true,2365,2,2_1_1_0,word_1_word_3_word_2,different,carrot,English_Speech,preschool,megan,,,,,,,,,male
uWskH,6,9,mal_plain,mal_sws,1,grapes,window,grapes,window,grapes,pizza,mal_plain_mal_sws,critical,2/1/2017,9:54,left,true,2527,2,1_2_1_1,word_2_word_3_word_1,far,grapes,English_Speech,preschool,megan,,,,,,,,,male
uWskH,6,9,mal_plain,mal_sws,2,grapes,window,grapes,window,grapes,pizza,mal_plain_mal_sws,critical,2/1/2017,9:54,top_img,true,2124,1,1_2_1_1,word_2_word_3_word_1,far,window,English_Speech,preschool,megan,,,,,,,,,male
uWskH,6,9,mal_plain,mal_sws,3,grapes,window,grapes,window,grapes,pizza,mal_plain_mal_sws,critical,2/1/2017,9:54,right,false,7072,4,1_2_1_1,word_2_word_3_word_1,far,pizza,English_Speech,preschool,megan,,,,,,,,,male
uWskH,7,19,mal_plain,mal_sws,1,building_blocks,tree,building_blocks,building_blocks,tree,santa,mal_plain_mal_sws,critical,2/1/2017,9:54,top_img,true,2990,2,2_1_2_1,word_2_word_3_word_1,far,building_blocks,English_Speech,preschool,megan,,,,,,,,,male
uWskH,7,19,mal_plain,mal_sws,2,building_blocks,tree,building_blocks,building_blocks,tree,santa,mal_plain_mal_sws,critical,2/1/2017,9:54,left,true,2936,2,2_1_2_1,word_2_word_3_word_1,far,tree,English_Speech,preschool,megan,,,,,,,,,male
uWskH,7,19,mal_plain,mal_sws,3,building_blocks,tree,building_blocks,building_blocks,tree,santa,mal_plain_mal_sws,critical,2/1/2017,9:54,right,false,6871,2,2_1_2_1,word_2_word_3_word_1,far,santa,English_Speech,preschool,megan,,,,,,,,,male
uWskH,8,5,mal_plain,mal_sws,1,orange,car,mouth,car,mouth,orange,mal_plain_mal_sws,critical,2/1/2017,9:54,right,true,4831,2,2_1_1_0,word_2_word_3_word_1,different,orange,English_Speech,preschool,megan,,,,,,,,,male
uWskH,8,5,mal_plain,mal_sws,2,orange,car,mouth,car,mouth,orange,mal_plain_mal_sws,critical,2/1/2017,9:54,top_img,true,2190,2,2_1_1_0,word_2_word_3_word_1,different,car,English_Speech,preschool,megan,,,,,,,,,male
uWskH,8,5,mal_plain,mal_sws,3,orange,car,mouth,car,mouth,orange,mal_plain_mal_sws,critical,2/1/2017,9:54,left,true,4402,2,2_1_1_0,word_2_word_3_word_1,different,mouth,English_Speech,preschool,megan,,,,,,,,,male
uWskH,9,15,mal_plain,mal_sws,1,beans,pencil,beans,pencil,slide,beans,mal_plain_mal_sws,critical,2/1/2017,9:54,right,true,2731,2,2_1_2_1,word_2_word_1_word_3,far,beans,English_Speech,preschool,megan,,,,,,,,,male
uWskH,9,15,mal_plain,mal_sws,2,beans,pencil,beans,pencil,slide,beans,mal_plain_mal_sws,critical,2/1/2017,9:54,top_img,true,2130,1,2_1_2_1,word_2_word_1_word_3,far,pencil,English_Speech,preschool,megan,,,,,,,,,male
uWskH,9,15,mal_plain,mal_sws,3,beans,pencil,beans,pencil,slide,beans,mal_plain_mal_sws,critical,2/1/2017,9:54,right,true,2180,4,2_1_2_1,word_2_word_1_word_3,far,beans,English_Speech,preschool,megan,,,,,,,,,male
uWskH,10,21,mal_plain,mal_sws,1,eye,sheep,frog,sheep,frog,eye,mal_plain_mal_sws,critical,2/1/2017,9:54,right,true,2426,2,2_1_1_0,word_2_word_1_word_3,different,eye,English_Speech,preschool,megan,,,,,,,,,male
uWskH,10,21,mal_plain,mal_sws,2,eye,sheep,frog,sheep,frog,eye,mal_plain_mal_sws,critical,2/1/2017,9:54,top_img,true,2388,1,2_1_1_0,word_2_word_1_word_3,different,sheep,English_Speech,preschool,megan,,,,,,,,,male
uWskH,10,21,mal_plain,mal_sws,3,eye,sheep,frog,sheep,frog,eye,mal_plain_mal_sws,critical,2/1/2017,9:54,left,true,4834,2,2_1_1_0,word_2_word_1_word_3,different,frog,English_Speech,preschool,megan,,,,,,,,,male
uWskH,11,18,mal_plain,mal_sws,1,camera,ball,ball,raspberry,camera,ball,mal_plain_mal_sws,critical,2/1/2017,9:54,left,true,2284,1,1_2_2_1,word_2_word_3_word_1,near,camera,English_Speech,preschool,megan,,,,,,,,,male
uWskH,11,18,mal_plain,mal_sws,2,camera,ball,ball,raspberry,camera,ball,mal_plain_mal_sws,critical,2/1/2017,9:54,right,true,2780,2,1_2_2_1,word_2_word_3_word_1,near,ball,English_Speech,preschool,megan,,,,,,,,,male
uWskH,11,18,mal_plain,mal_sws,3,camera,ball,ball,raspberry,camera,ball,mal_plain_mal_sws,critical,2/1/2017,9:54,top_img,false,8337,2,1_2_2_1,word_2_word_3_word_1,near,raspberry,English_Speech,preschool,megan,,,,,,,,,male
uWskH,12,2,mal_plain,mal_sws,1,fork,chicken,chicken,bed,chicken,fork,mal_plain_mal_sws,critical,2/1/2017,9:54,right,true,2807,2,1_2_2_1,word_1_word_2_word_3,near,fork,English_Speech,preschool,megan,,,,,,,,,male
uWskH,12,2,mal_plain,mal_sws,2,fork,chicken,chicken,bed,chicken,fork,mal_plain_mal_sws,critical,2/1/2017,9:54,left,true,2600,2,1_2_2_1,word_1_word_2_word_3,near,chicken,English_Speech,preschool,megan,,,,,,,,,male
uWskH,12,2,mal_plain,mal_sws,3,fork,chicken,chicken,bed,chicken,fork,mal_plain_mal_sws,critical,2/1/2017,9:54,top_img,false,4635,2,1_2_2_1,word_1_word_2_word_3,near,bed,English_Speech,preschool,megan,,,,,,,,,male
uWskH,13,23,mal_plain,mal_sws,1,bath,table,bath,table,bath,teddy_bear,mal_plain_mal_sws,critical,2/1/2017,9:54,left,true,2248,2,1_2_1_1,word_3_word_1_word_2,far,bath,English_Speech,preschool,megan,,,,,,,,,male
uWskH,13,23,mal_plain,mal_sws,2,bath,table,bath,table,bath,teddy_bear,mal_plain_mal_sws,critical,2/1/2017,9:54,top_img,true,2229,2,1_2_1_1,word_3_word_1_word_2,far,table,English_Speech,preschool,megan,,,,,,,,,male
uWskH,13,23,mal_plain,mal_sws,3,bath,table,bath,table,bath,teddy_bear,mal_plain_mal_sws,critical,2/1/2017,9:54,right,false,7470,4,1_2_1_1,word_3_word_1_word_2,far,teddy_bear,English_Speech,preschool,megan,,,,,,,,,male
uWskH,14,20,mal_plain,mal_sws,1,rabbit,apple,jumper,jumper,rabbit,apple,mal_plain_mal_sws,critical,2/1/2017,9:54,left,true,2112,2,2_1_1_0,word_1_word_2_word_3,different,rabbit,English_Speech,preschool,megan,,,,,,,,,male
uWskH,14,20,mal_plain,mal_sws,2,rabbit,apple,jumper,jumper,rabbit,apple,mal_plain_mal_sws,critical,2/1/2017,9:54,right,true,2375,1,2_1_1_0,word_1_word_2_word_3,different,apple,English_Speech,preschool,megan,,,,,,,,,male
uWskH,14,20,mal_plain,mal_sws,3,rabbit,apple,jumper,jumper,rabbit,apple,mal_plain_mal_sws,critical,2/1/2017,9:54,top_img,true,464,2,2_1_1_0,word_1_word_2_word_3,different,jumper,English_Speech,preschool,megan,,,,,,,,,male
uWskH,15,7,mal_plain,mal_sws,1,cat,horse,horse,horse,lolly,cat,mal_plain_mal_sws,critical,2/1/2017,9:54,right,true,3325,2,2_1_1_1,word_2_word_1_word_3,near,cat,English_Speech,preschool,megan,,,,,,,,,male
uWskH,15,7,mal_plain,mal_sws,2,cat,horse,horse,horse,lolly,cat,mal_plain_mal_sws,critical,2/1/2017,9:54,top_img,true,2582,2,2_1_1_1,word_2_word_1_word_3,near,horse,English_Speech,preschool,megan,,,,,,,,,male
uWskH,15,7,mal_plain,mal_sws,3,cat,horse,horse,horse,lolly,cat,mal_plain_mal_sws,critical,2/1/2017,9:54,left,false,6393,2,2_1_1_1,word_2_word_1_word_3,near,lolly,English_Speech,preschool,megan,,,,,,,,,male
uWskH,16,3,mal_plain,mal_sws,1,trousers,nose,telephone,trousers,nose,telephone,mal_plain_mal_sws,critical,2/1/2017,9:54,top_img,true,2326,2,2_1_1_0,word_1_word_2_word_3,different,trousers,English_Speech,preschool,megan,,,,,,,,,male
uWskH,16,3,mal_plain,mal_sws,2,trousers,nose,telephone,trousers,nose,telephone,mal_plain_mal_sws,critical,2/1/2017,9:54,left,true,2518,1,2_1_1_0,word_1_word_2_word_3,different,nose,English_Speech,preschool,megan,,,,,,,,,male
uWskH,16,3,mal_plain,mal_sws,3,trousers,nose,telephone,trousers,nose,telephone,mal_plain_mal_sws,critical,2/1/2017,9:54,right,true,6489,2,2_1_1_0,word_1_word_2_word_3,different,telephone,English_Speech,preschool,megan,,,,,,,,,male
uWskH,17,8,mal_plain,mal_sws,1,wellyboots,ear,fire_engine,ear,wellyboots,fire_engine,mal_plain_mal_sws,critical,2/1/2017,9:54,left,true,2500,2,2_1_1_0,word_3_word_1_word_2,different,wellyboots,English_Speech,preschool,megan,,,,,,,,,male
uWskH,17,8,mal_plain,mal_sws,2,wellyboots,ear,fire_engine,ear,wellyboots,fire_engine,mal_plain_mal_sws,critical,2/1/2017,9:54,top_img,true,2622,2,2_1_1_0,word_3_word_1_word_2,different,ear,English_Speech,preschool,megan,,,,,,,,,male
uWskH,17,8,mal_plain,mal_sws,3,wellyboots,ear,fire_engine,ear,wellyboots,fire_engine,mal_plain_mal_sws,critical,2/1/2017,9:54,right,true,3273,1,2_1_1_0,word_3_word_1_word_2,different,fire_engine,English_Speech,preschool,megan,,,,,,,,,male
uWskH,18,13,mal_plain,mal_sws,1,toothbrush,airplane,bread,bread,toothbrush,airplane,mal_plain_mal_sws,critical,2/1/2017,9:54,left,true,2201,2,2_1_2_0,word_3_word_1_word_2,different,toothbrush,English_Speech,preschool,megan,,,,,,,,,male
uWskH,18,13,mal_plain,mal_sws,2,toothbrush,airplane,bread,bread,toothbrush,airplane,mal_plain_mal_sws,critical,2/1/2017,9:54,right,true,2396,2,2_1_2_0,word_3_word_1_word_2,different,airplane,English_Speech,preschool,megan,,,,,,,,,male
uWskH,18,13,mal_plain,mal_sws,3,toothbrush,airplane,bread,bread,toothbrush,airplane,mal_plain_mal_sws,critical,2/1/2017,9:54,top_img,true,2003,2,2_1_2_0,word_3_word_1_word_2,different,bread,English_Speech,preschool,megan,,,,,,,,,male
uWskH,19,14,mal_plain,mal_sws,1,door,shoes,cheese,shoes,cheese,door,mal_plain_mal_sws,critical,2/1/2017,9:54,right,true,2284,2,1_2_2_0,word_2_word_1_word_3,different,door,English_Speech,preschool,megan,,,,,,,,,male
uWskH,19,14,mal_plain,mal_sws,2,door,shoes,cheese,shoes,cheese,door,mal_plain_mal_sws,critical,2/1/2017,9:54,top_img,true,2157,2,1_2_2_0,word_2_word_1_word_3,different,shoes,English_Speech,preschool,megan,,,,,,,,,male
uWskH,19,14,mal_plain,mal_sws,3,door,shoes,cheese,shoes,cheese,door,mal_plain_mal_sws,critical,2/1/2017,9:54,left,true,2606,2,1_2_2_0,word_2_word_1_word_3,different,cheese,English_Speech,preschool,megan,,,,,,,,,male
uWskH,20,10,mal_plain,mal_sws,1,hat,pig,tshirt,hat,tshirt,pig,mal_plain_mal_sws,critical,2/1/2017,9:54,top_img,true,2440,2,1_2_2_0,word_3_word_2_word_1,different,hat,English_Speech,preschool,megan,,,,,,,,,male
uWskH,20,10,mal_plain,mal_sws,2,hat,pig,tshirt,hat,tshirt,pig,mal_plain_mal_sws,critical,2/1/2017,9:54,right,true,2220,2,1_2_2_0,word_3_word_2_word_1,different,pig,English_Speech,preschool,megan,,,,,,,,,male
uWskH,20,10,mal_plain,mal_sws,3,hat,pig,tshirt,hat,tshirt,pig,mal_plain_mal_sws,critical,2/1/2017,9:54,left,true,2365,2,1_2_2_0,word_3_word_2_word_1,different,tshirt,English_Speech,preschool,megan,,,,,,,,,male
uWskH,21,11,mal_plain,mal_sws,1,cow,lorry,book,lorry,cow,book,mal_plain_mal_sws,critical,2/1/2017,9:54,left,true,3029,2,2_1_2_0,word_2_word_3_word_1,different,cow,English_Speech,preschool,megan,,,,,,,,,male
uWskH,21,11,mal_plain,mal_sws,2,cow,lorry,book,lorry,cow,book,mal_plain_mal_sws,critical,2/1/2017,9:54,top_img,true,2377,2,2_1_2_0,word_2_word_3_word_1,different,lorry,English_Speech,preschool,megan,,,,,,,,,male
uWskH,21,11,mal_plain,mal_sws,3,cow,lorry,book,lorry,cow,book,mal_plain_mal_sws,critical,2/1/2017,9:54,right,true,3934,2,2_1_2_0,word_2_word_3_word_1,different,book,English_Speech,preschool,megan,,,,,,,,,male
uWskH,22,4,mal_plain,mal_sws,1,strawberry,flower,flower,coat,flower,strawberry,mal_plain_mal_sws,critical,2/1/2017,9:54,right,true,2496,2,2_1_1_1,word_1_word_3_word_2,near,strawberry,English_Speech,preschool,megan,,,,,,,,,male
uWskH,22,4,mal_plain,mal_sws,2,strawberry,flower,flower,coat,flower,strawberry,mal_plain_mal_sws,critical,2/1/2017,9:54,left,true,1969,2,2_1_1_1,word_1_word_3_word_2,near,flower,English_Speech,preschool,megan,,,,,,,,,male
uWskH,22,4,mal_plain,mal_sws,3,strawberry,flower,flower,coat,flower,strawberry,mal_plain_mal_sws,critical,2/1/2017,9:54,top_img,false,3597,3,2_1_1_1,word_1_word_3_word_2,near,coat,English_Speech,preschool,megan,,,,,,,,,male
uWskH,23,12,mal_plain,mal_sws,1,yoghurt,gloves,gloves,yoghurt,gloves,foot,mal_plain_mal_sws,critical,2/1/2017,9:54,top_img,true,2660,2,2_1_1_1,word_2_word_3_word_1,near,yoghurt,English_Speech,preschool,megan,,,,,,,,,male
uWskH,23,12,mal_plain,mal_sws,2,yoghurt,gloves,gloves,yoghurt,gloves,foot,mal_plain_mal_sws,critical,2/1/2017,9:54,left,true,2786,1,2_1_1_1,word_2_word_3_word_1,near,gloves,English_Speech,preschool,megan,,,,,,,,,male
uWskH,23,12,mal_plain,mal_sws,3,yoghurt,gloves,gloves,yoghurt,gloves,foot,mal_plain_mal_sws,critical,2/1/2017,9:54,left,true,5469,1,2_1_1_1,word_2_word_3_word_1,near,gloves,English_Speech,preschool,megan,,,,,,,,,male
uWskH,24,17,mal_plain,mal_sws,1,ambulance,cake,hand,hand,ambulance,cake,mal_plain_mal_sws,critical,2/1/2017,9:54,left,true,2761,2,1_2_2_0,word_3_word_2_word_1,different,ambulance,English_Speech,preschool,megan,,,,,,,,,male
uWskH,24,17,mal_plain,mal_sws,2,ambulance,cake,hand,hand,ambulance,cake,mal_plain_mal_sws,critical,2/1/2017,9:54,right,true,2092,1,1_2_2_0,word_3_word_2_word_1,different,cake,English_Speech,preschool,megan,,,,,,,,,male
uWskH,24,17,mal_plain,mal_sws,3,ambulance,cake,hand,hand,ambulance,cake,mal_plain_mal_sws,critical,2/1/2017,9:54,top_img,true,3036,2,1_2_2_0,word_3_word_2_word_1,different,hand,English_Speech,preschool,megan,,,,,,,,,male
uWskH,25,22,mal_plain,mal_sws,1,dog,bike,dog,doctor,bike,dog,mal_plain_mal_sws,critical,2/1/2017,9:54,right,true,3670,2,1_2_1_1,word_3_word_1_word_2,far,dog,English_Speech,preschool,megan,,,,,,,,,male
uWskH,25,22,mal_plain,mal_sws,2,dog,bike,dog,doctor,bike,dog,mal_plain_mal_sws,critical,2/1/2017,9:54,left,true,2483,2,1_2_1_1,word_3_word_1_word_2,far,bike,English_Speech,preschool,megan,,,,,,,,,male
uWskH,25,22,mal_plain,mal_sws,3,dog,bike,dog,doctor,bike,dog,mal_plain_mal_sws,critical,2/1/2017,9:54,left,false,3628,2,1_2_1_1,word_3_word_1_word_2,far,bike,English_Speech,preschool,megan,,,,,,,,,male
