subject_id,trial_number,trial_id,plain,sws,instruction_number,sound1_item,sound2_item,sound3_item,left_image,right_image,sound_gender,trial_type,date_stamp,time_stamp,side_chosen,accuracy,rt,play_counter,order,pic_position,distance,chosen_pic,test_lang,testing_loc,tester,date_of_birth,ethnicity,native_lang,other_langs,parental_occ,dev_info,birth_order,num_siblings,gender
2pzkR,1,0,mal_plain,mal_sws,1,fireman,glasses,glasses,fireman,glasses,mal_plain_mal_sws,training,3/22/2017,15:25,right,false,5819,4,2_1_1_1,word_1_word_2,near,glasses,Clear_After,preschool,hanna,2012-06-09,,English,,,,2,1,male
2pzkR,1,0,mal_plain,mal_sws,2,fireman,glasses,glasses,fireman,glasses,mal_plain_mal_sws,training,3/22/2017,15:25,left,false,2300,3,2_1_1_1,word_1_word_2,near,fireman,Clear_After,preschool,hanna,2012-06-09,,English,,,,2,1,male
2pzkR,1,0,mal_plain,mal_sws,3,fireman,glasses,glasses,fireman,glasses,mal_plain_mal_sws,training,3/22/2017,15:25,right,true,1855,2,2_1_1_1,word_1_word_2,near,glasses,Clear_After,preschool,hanna,2012-06-09,,English,,,,2,1,male
2pzkR,2,9,mal_plain,mal_sws,1,pizza,window,pizza,pizza,window,mal_plain_mal_sws,critical,3/22/2017,15:25,right,false,10786,5,2_1_2_1,word_1_word_2,far,window,Clear_After,preschool,hanna,2012-06-09,,English,,,,2,1,male
2pzkR,2,9,mal_plain,mal_sws,2,pizza,window,pizza,pizza,window,mal_plain_mal_sws,critical,3/22/2017,15:25,left,false,2251,2,2_1_2_1,word_1_word_2,far,pizza,Clear_After,preschool,hanna,2012-06-09,,English,,,,2,1,male
2pzkR,2,9,mal_plain,mal_sws,3,pizza,window,pizza,pizza,window,mal_plain_mal_sws,critical,3/22/2017,15:25,right,false,1866,2,2_1_2_1,word_1_word_2,far,window,Clear_After,preschool,hanna,2012-06-09,,English,,,,2,1,male
2pzkR,3,6,mal_plain,mal_sws,1,bird,peas,bird,peas,bird,mal_plain_mal_sws,critical,3/22/2017,15:25,right,true,9358,6,2_1_2_1,word_2_word_1,far,bird,Clear_After,preschool,hanna,2012-06-09,,English,,,,2,1,male
2pzkR,3,6,mal_plain,mal_sws,2,bird,peas,bird,peas,bird,mal_plain_mal_sws,critical,3/22/2017,15:25,right,false,2535,1,2_1_2_1,word_2_word_1,far,bird,Clear_After,preschool,hanna,2012-06-09,,English,,,,2,1,male
2pzkR,3,6,mal_plain,mal_sws,3,bird,peas,bird,peas,bird,mal_plain_mal_sws,critical,3/22/2017,15:25,left,false,1842,1,2_1_2_1,word_2_word_1,far,peas,Clear_After,preschool,hanna,2012-06-09,,English,,,,2,1,male
2pzkR,4,17,mal_plain,mal_sws,1,ambulance,cake,cake,cake,ambulance,mal_plain_mal_sws,critical,3/22/2017,15:25,left,false,7257,3,1_2_2_1,word_1_word_2,near,cake,Clear_After,preschool,hanna,2012-06-09,,English,,,,2,1,male
2pzkR,4,17,mal_plain,mal_sws,2,ambulance,cake,cake,cake,ambulance,mal_plain_mal_sws,critical,3/22/2017,15:25,right,false,2451,3,1_2_2_1,word_1_word_2,near,ambulance,Clear_After,preschool,hanna,2012-06-09,,English,,,,2,1,male
2pzkR,4,17,mal_plain,mal_sws,3,ambulance,cake,cake,cake,ambulance,mal_plain_mal_sws,critical,3/22/2017,15:25,left,true,1890,1,1_2_2_1,word_1_word_2,near,cake,Clear_After,preschool,hanna,2012-06-09,,English,,,,2,1,male
2pzkR,5,8,mal_plain,mal_sws,1,fire_engine,wellyboots,wellyboots,wellyboots,fire_engine,mal_plain_mal_sws,critical,3/22/2017,15:25,right,true,8338,4,1_2_2_1,word_1_word_2,near,fire_engine,Clear_After,preschool,hanna,2012-06-09,,English,,,,2,1,male
2pzkR,5,8,mal_plain,mal_sws,2,fire_engine,wellyboots,wellyboots,wellyboots,fire_engine,mal_plain_mal_sws,critical,3/22/2017,15:25,right,false,3348,4,1_2_2_1,word_1_word_2,near,fire_engine,Clear_After,preschool,hanna,2012-06-09,,English,,,,2,1,male
2pzkR,5,8,mal_plain,mal_sws,3,fire_engine,wellyboots,wellyboots,wellyboots,fire_engine,mal_plain_mal_sws,critical,3/22/2017,15:25,left,true,2330,1,1_2_2_1,word_1_word_2,near,wellyboots,Clear_After,preschool,hanna,2012-06-09,,English,,,,2,1,male
2pzkR,6,16,mal_plain,mal_sws,1,paintbrush,banana,paintbrush,paintbrush,banana,mal_plain_mal_sws,critical,3/22/2017,15:25,left,true,9626,2,2_1_2_1,word_1_word_2,far,paintbrush,Clear_After,preschool,hanna,2012-06-09,,English,,,,2,1,male
2pzkR,6,16,mal_plain,mal_sws,2,paintbrush,banana,paintbrush,paintbrush,banana,mal_plain_mal_sws,critical,3/22/2017,15:25,left,false,4017,1,2_1_2_1,word_1_word_2,far,paintbrush,Clear_After,preschool,hanna,2012-06-09,,English,,,,2,1,male
2pzkR,6,16,mal_plain,mal_sws,3,paintbrush,banana,paintbrush,paintbrush,banana,mal_plain_mal_sws,critical,3/22/2017,15:25,right,false,2004,2,2_1_2_1,word_1_word_2,far,banana,Clear_After,preschool,hanna,2012-06-09,,English,,,,2,1,male
2pzkR,7,3,mal_plain,mal_sws,1,trousers,nose,nose,nose,trousers,mal_plain_mal_sws,critical,3/22/2017,15:25,left,false,4227,2,2_1_1_1,word_2_word_1,near,nose,Clear_After,preschool,hanna,2012-06-09,,English,,,,2,1,male
2pzkR,7,3,mal_plain,mal_sws,2,trousers,nose,nose,nose,trousers,mal_plain_mal_sws,critical,3/22/2017,15:25,right,false,2426,1,2_1_1_1,word_2_word_1,near,trousers,Clear_After,preschool,hanna,2012-06-09,,English,,,,2,1,male
2pzkR,7,3,mal_plain,mal_sws,3,trousers,nose,nose,nose,trousers,mal_plain_mal_sws,critical,3/22/2017,15:25,left,true,2270,1,2_1_1_1,word_2_word_1,near,nose,Clear_After,preschool,hanna,2012-06-09,,English,,,,2,1,male
2pzkR,8,15,mal_plain,mal_sws,1,pencil,slide,pencil,pencil,slide,mal_plain_mal_sws,critical,3/22/2017,15:25,left,true,7656,2,1_2_1_1,word_2_word_1,far,pencil,Clear_After,preschool,hanna,2012-06-09,,English,,,,2,1,male
2pzkR,8,15,mal_plain,mal_sws,2,pencil,slide,pencil,pencil,slide,mal_plain_mal_sws,critical,3/22/2017,15:25,left,false,2124,1,1_2_1_1,word_2_word_1,far,pencil,Clear_After,preschool,hanna,2012-06-09,,English,,,,2,1,male
2pzkR,8,15,mal_plain,mal_sws,3,pencil,slide,pencil,pencil,slide,mal_plain_mal_sws,critical,3/22/2017,15:25,right,false,2457,1,1_2_1_1,word_2_word_1,far,slide,Clear_After,preschool,hanna,2012-06-09,,English,,,,2,1,male
2pzkR,9,21,mal_plain,mal_sws,1,frog,sheep,frog,frog,sheep,mal_plain_mal_sws,critical,3/22/2017,15:25,right,false,7402,4,1_2_1_1,word_1_word_2,far,sheep,Clear_After,preschool,hanna,2012-06-09,,English,,,,2,1,male
2pzkR,9,21,mal_plain,mal_sws,2,frog,sheep,frog,frog,sheep,mal_plain_mal_sws,critical,3/22/2017,15:25,left,false,3001,1,1_2_1_1,word_1_word_2,far,frog,Clear_After,preschool,hanna,2012-06-09,,English,,,,2,1,male
2pzkR,9,21,mal_plain,mal_sws,3,frog,sheep,frog,frog,sheep,mal_plain_mal_sws,critical,3/22/2017,15:25,right,false,2210,1,1_2_1_1,word_1_word_2,far,sheep,Clear_After,preschool,hanna,2012-06-09,,English,,,,2,1,male
2pzkR,10,18,mal_plain,mal_sws,1,ball,raspberry,ball,ball,raspberry,mal_plain_mal_sws,critical,3/22/2017,15:25,right,false,6807,3,2_1_2_1,word_1_word_2,far,raspberry,Clear_After,preschool,hanna,2012-06-09,,English,,,,2,1,male
2pzkR,10,18,mal_plain,mal_sws,2,ball,raspberry,ball,ball,raspberry,mal_plain_mal_sws,critical,3/22/2017,15:25,left,false,2609,2,2_1_2_1,word_1_word_2,far,ball,Clear_After,preschool,hanna,2012-06-09,,English,,,,2,1,male
2pzkR,10,18,mal_plain,mal_sws,3,ball,raspberry,ball,ball,raspberry,mal_plain_mal_sws,critical,3/22/2017,15:25,right,false,3186,2,2_1_2_1,word_1_word_2,far,raspberry,Clear_After,preschool,hanna,2012-06-09,,English,,,,2,1,male
2pzkR,11,14,mal_plain,mal_sws,1,cheese,shoes,cheese,shoes,cheese,mal_plain_mal_sws,critical,3/22/2017,15:25,left,false,5419,2,1_2_1_1,word_2_word_1,far,shoes,Clear_After,preschool,hanna,2012-06-09,,English,,,,2,1,male
2pzkR,11,14,mal_plain,mal_sws,2,cheese,shoes,cheese,shoes,cheese,mal_plain_mal_sws,critical,3/22/2017,15:25,right,false,4371,1,1_2_1_1,word_2_word_1,far,cheese,Clear_After,preschool,hanna,2012-06-09,,English,,,,2,1,male
2pzkR,11,14,mal_plain,mal_sws,3,cheese,shoes,cheese,shoes,cheese,mal_plain_mal_sws,critical,3/22/2017,15:25,left,false,2739,1,1_2_1_1,word_2_word_1,far,shoes,Clear_After,preschool,hanna,2012-06-09,,English,,,,2,1,male
2pzkR,12,2,mal_plain,mal_sws,1,chicken,bed,bed,bed,chicken,mal_plain_mal_sws,critical,3/22/2017,15:25,right,true,3935,4,1_2_2_1,word_1_word_2,near,chicken,Clear_After,preschool,hanna,2012-06-09,,English,,,,2,1,male
2pzkR,12,2,mal_plain,mal_sws,2,chicken,bed,bed,bed,chicken,mal_plain_mal_sws,critical,3/22/2017,15:25,right,false,2855,1,1_2_2_1,word_1_word_2,near,chicken,Clear_After,preschool,hanna,2012-06-09,,English,,,,2,1,male
2pzkR,12,2,mal_plain,mal_sws,3,chicken,bed,bed,bed,chicken,mal_plain_mal_sws,critical,3/22/2017,15:25,left,true,2323,1,1_2_2_1,word_1_word_2,near,bed,Clear_After,preschool,hanna,2012-06-09,,English,,,,2,1,male
2pzkR,13,12,mal_plain,mal_sws,1,foot,yoghurt,yoghurt,yoghurt,foot,mal_plain_mal_sws,critical,3/22/2017,15:25,right,true,2141,2,2_1_1_1,word_2_word_1,near,foot,Clear_After,preschool,hanna,2012-06-09,,English,,,,2,1,male
2pzkR,13,12,mal_plain,mal_sws,2,foot,yoghurt,yoghurt,yoghurt,foot,mal_plain_mal_sws,critical,3/22/2017,15:25,right,false,2686,2,2_1_1_1,word_2_word_1,near,foot,Clear_After,preschool,hanna,2012-06-09,,English,,,,2,1,male
2pzkR,13,12,mal_plain,mal_sws,3,foot,yoghurt,yoghurt,yoghurt,foot,mal_plain_mal_sws,critical,3/22/2017,15:25,left,true,2584,1,2_1_1_1,word_2_word_1,near,yoghurt,Clear_After,preschool,hanna,2012-06-09,,English,,,,2,1,male
2pzkR,14,11,mal_plain,mal_sws,1,lorry,book,lorry,book,lorry,mal_plain_mal_sws,critical,3/22/2017,15:25,right,true,5555,6,1_2_1_1,word_1_word_2,far,lorry,Clear_After,preschool,hanna,2012-06-09,,English,,,,2,1,male
2pzkR,14,11,mal_plain,mal_sws,2,lorry,book,lorry,book,lorry,mal_plain_mal_sws,critical,3/22/2017,15:25,right,false,6020,1,1_2_1_1,word_1_word_2,far,lorry,Clear_After,preschool,hanna,2012-06-09,,English,,,,2,1,male
2pzkR,14,11,mal_plain,mal_sws,3,lorry,book,lorry,book,lorry,mal_plain_mal_sws,critical,3/22/2017,15:25,left,false,1969,1,1_2_1_1,word_1_word_2,far,book,Clear_After,preschool,hanna,2012-06-09,,English,,,,2,1,male
2pzkR,15,10,mal_plain,mal_sws,1,tshirt,pig,tshirt,pig,tshirt,mal_plain_mal_sws,critical,3/22/2017,15:25,left,false,5614,8,2_1_2_1,word_1_word_2,far,pig,Clear_After,preschool,hanna,2012-06-09,,English,,,,2,1,male
2pzkR,15,10,mal_plain,mal_sws,2,tshirt,pig,tshirt,pig,tshirt,mal_plain_mal_sws,critical,3/22/2017,15:25,right,false,2988,1,2_1_2_1,word_1_word_2,far,tshirt,Clear_After,preschool,hanna,2012-06-09,,English,,,,2,1,male
2pzkR,15,10,mal_plain,mal_sws,3,tshirt,pig,tshirt,pig,tshirt,mal_plain_mal_sws,critical,3/22/2017,15:25,left,false,1845,2,2_1_2_1,word_1_word_2,far,pig,Clear_After,preschool,hanna,2012-06-09,,English,,,,2,1,male
2pzkR,16,7,mal_plain,mal_sws,1,horse,lolly,lolly,horse,lolly,mal_plain_mal_sws,critical,3/22/2017,15:25,left,true,569,4,2_1_1_1,word_2_word_1,near,horse,Clear_After,preschool,hanna,2012-06-09,,English,,,,2,1,male
2pzkR,16,7,mal_plain,mal_sws,2,horse,lolly,lolly,horse,lolly,mal_plain_mal_sws,critical,3/22/2017,15:25,right,true,399,2,2_1_1_1,word_2_word_1,near,lolly,Clear_After,preschool,hanna,2012-06-09,,English,,,,2,1,male
2pzkR,16,7,mal_plain,mal_sws,3,horse,lolly,lolly,horse,lolly,mal_plain_mal_sws,critical,3/22/2017,15:25,left,false,160,1,2_1_1_1,word_2_word_1,near,horse,Clear_After,preschool,hanna,2012-06-09,,English,,,,2,1,male
2pzkR,17,5,mal_plain,mal_sws,1,car,orange,orange,orange,car,mal_plain_mal_sws,critical,3/22/2017,15:25,left,false,5059,4,1_2_2_1,word_1_word_2,near,orange,Clear_After,preschool,hanna,2012-06-09,,English,,,,2,1,male
2pzkR,17,5,mal_plain,mal_sws,2,car,orange,orange,orange,car,mal_plain_mal_sws,critical,3/22/2017,15:25,right,false,1684,1,1_2_2_1,word_1_word_2,near,car,Clear_After,preschool,hanna,2012-06-09,,English,,,,2,1,male
2pzkR,17,5,mal_plain,mal_sws,3,car,orange,orange,orange,car,mal_plain_mal_sws,critical,3/22/2017,15:25,left,true,2720,1,1_2_2_1,word_1_word_2,near,orange,Clear_After,preschool,hanna,2012-06-09,,English,,,,2,1,male
2pzkR,18,20,mal_plain,mal_sws,1,jumper,rabbit,jumper,jumper,rabbit,mal_plain_mal_sws,critical,3/22/2017,15:25,right,false,15022,2,1_2_1_1,word_1_word_2,far,rabbit,Clear_After,preschool,hanna,2012-06-09,,English,,,,2,1,male
2pzkR,18,20,mal_plain,mal_sws,2,jumper,rabbit,jumper,jumper,rabbit,mal_plain_mal_sws,critical,3/22/2017,15:25,left,false,3277,1,1_2_1_1,word_1_word_2,far,jumper,Clear_After,preschool,hanna,2012-06-09,,English,,,,2,1,male
2pzkR,18,20,mal_plain,mal_sws,3,jumper,rabbit,jumper,jumper,rabbit,mal_plain_mal_sws,critical,3/22/2017,15:25,right,false,2283,1,1_2_1_1,word_1_word_2,far,rabbit,Clear_After,preschool,hanna,2012-06-09,,English,,,,2,1,male
2pzkR,19,19,mal_plain,mal_sws,1,santa,building_blocks,building_blocks,building_blocks,santa,mal_plain_mal_sws,critical,3/22/2017,15:25,left,false,9588,4,2_1_1_1,word_2_word_1,near,building_blocks,Clear_After,preschool,hanna,2012-06-09,,English,,,,2,1,male
2pzkR,19,19,mal_plain,mal_sws,2,santa,building_blocks,building_blocks,building_blocks,santa,mal_plain_mal_sws,critical,3/22/2017,15:25,right,false,2578,2,2_1_1_1,word_2_word_1,near,santa,Clear_After,preschool,hanna,2012-06-09,,English,,,,2,1,male
2pzkR,19,19,mal_plain,mal_sws,3,santa,building_blocks,building_blocks,building_blocks,santa,mal_plain_mal_sws,critical,3/22/2017,15:25,left,true,4508,2,2_1_1_1,word_2_word_1,near,building_blocks,Clear_After,preschool,hanna,2012-06-09,,English,,,,2,1,male
2pzkR,20,1,mal_plain,mal_sws,1,baby,spoon,spoon,spoon,baby,mal_plain_mal_sws,critical,3/22/2017,15:25,right,true,3657,3,1_2_2_1,word_1_word_2,near,baby,Clear_After,preschool,hanna,2012-06-09,,English,,,,2,1,male
2pzkR,20,1,mal_plain,mal_sws,2,baby,spoon,spoon,spoon,baby,mal_plain_mal_sws,critical,3/22/2017,15:25,right,false,2031,1,1_2_2_1,word_1_word_2,near,baby,Clear_After,preschool,hanna,2012-06-09,,English,,,,2,1,male
2pzkR,20,1,mal_plain,mal_sws,3,baby,spoon,spoon,spoon,baby,mal_plain_mal_sws,critical,3/22/2017,15:25,left,true,1589,1,1_2_2_1,word_1_word_2,near,spoon,Clear_After,preschool,hanna,2012-06-09,,English,,,,2,1,male
2pzkR,21,4,mal_plain,mal_sws,1,strawberry,coat,coat,coat,strawberry,mal_plain_mal_sws,critical,3/22/2017,15:25,left,false,4587,2,1_2_2_1,word_1_word_2,near,coat,Clear_After,preschool,hanna,2012-06-09,,English,,,,2,1,male
2pzkR,21,4,mal_plain,mal_sws,2,strawberry,coat,coat,coat,strawberry,mal_plain_mal_sws,critical,3/22/2017,15:25,right,false,2374,1,1_2_2_1,word_1_word_2,near,strawberry,Clear_After,preschool,hanna,2012-06-09,,English,,,,2,1,male
2pzkR,21,4,mal_plain,mal_sws,3,strawberry,coat,coat,coat,strawberry,mal_plain_mal_sws,critical,3/22/2017,15:25,left,true,2338,1,1_2_2_1,word_1_word_2,near,coat,Clear_After,preschool,hanna,2012-06-09,,English,,,,2,1,male
2pzkR,22,13,mal_plain,mal_sws,1,toothbrush,airplane,toothbrush,airplane,toothbrush,mal_plain_mal_sws,critical,3/22/2017,15:25,right,true,2666,2,2_1_2_1,word_2_word_1,far,toothbrush,Clear_After,preschool,hanna,2012-06-09,,English,,,,2,1,male
2pzkR,22,13,mal_plain,mal_sws,2,toothbrush,airplane,toothbrush,airplane,toothbrush,mal_plain_mal_sws,critical,3/22/2017,15:25,left,true,350,1,2_1_2_1,word_2_word_1,far,airplane,Clear_After,preschool,hanna,2012-06-09,,English,,,,2,1,male
2pzkR,22,13,mal_plain,mal_sws,3,toothbrush,airplane,toothbrush,airplane,toothbrush,mal_plain_mal_sws,critical,3/22/2017,15:25,right,true,147,1,2_1_2_1,word_2_word_1,far,toothbrush,Clear_After,preschool,hanna,2012-06-09,,English,,,,2,1,male
2pzkR,23,22,mal_plain,mal_sws,1,bike,dog,bike,dog,bike,mal_plain_mal_sws,critical,3/22/2017,15:25,right,true,2139,2,1_2_1_1,word_2_word_1,far,bike,Clear_After,preschool,hanna,2012-06-09,,English,,,,2,1,male
2pzkR,23,22,mal_plain,mal_sws,2,bike,dog,bike,dog,bike,mal_plain_mal_sws,critical,3/22/2017,15:25,left,true,498,1,1_2_1_1,word_2_word_1,far,dog,Clear_After,preschool,hanna,2012-06-09,,English,,,,2,1,male
2pzkR,23,22,mal_plain,mal_sws,3,bike,dog,bike,dog,bike,mal_plain_mal_sws,critical,3/22/2017,15:25,right,true,166,1,1_2_1_1,word_2_word_1,far,bike,Clear_After,preschool,hanna,2012-06-09,,English,,,,2,1,male
2pzkR,24,23,mal_plain,mal_sws,1,bath,teddy_bear,teddy_bear,teddy_bear,bath,mal_plain_mal_sws,critical,3/22/2017,15:25,right,true,3132,4,2_1_1_1,word_2_word_1,near,bath,Clear_After,preschool,hanna,2012-06-09,,English,,,,2,1,male
2pzkR,24,23,mal_plain,mal_sws,2,bath,teddy_bear,teddy_bear,teddy_bear,bath,mal_plain_mal_sws,critical,3/22/2017,15:25,right,false,2400,2,2_1_1_1,word_2_word_1,near,bath,Clear_After,preschool,hanna,2012-06-09,,English,,,,2,1,male
2pzkR,24,23,mal_plain,mal_sws,3,bath,teddy_bear,teddy_bear,teddy_bear,bath,mal_plain_mal_sws,critical,3/22/2017,15:25,left,true,1993,1,2_1_1_1,word_2_word_1,near,teddy_bear,Clear_After,preschool,hanna,2012-06-09,,English,,,,2,1,male
2pzkR,25,24,mal_plain,mal_sws,1,sink,fish,sink,fish,sink,mal_plain_mal_sws,critical,3/22/2017,15:25,right,true,9281,3,1_2_1_1,word_2_word_1,far,sink,Clear_After,preschool,hanna,2012-06-09,,English,,,,2,1,male
2pzkR,25,24,mal_plain,mal_sws,2,sink,fish,sink,fish,sink,mal_plain_mal_sws,critical,3/22/2017,15:25,right,false,3652,2,1_2_1_1,word_2_word_1,far,sink,Clear_After,preschool,hanna,2012-06-09,,English,,,,2,1,male
2pzkR,25,24,mal_plain,mal_sws,3,sink,fish,sink,fish,sink,mal_plain_mal_sws,critical,3/22/2017,15:25,left,false,2635,1,1_2_1_1,word_2_word_1,far,fish,Clear_After,preschool,hanna,2012-06-09,,English,,,,2,1,male
