subject_id,trial_number,trial_id,plain,sws,instruction_number,sound1_item,sound2_item,sound3_item,left_image,right_image,sound_gender,trial_type,date_stamp,time_stamp,side_chosen,accuracy,rt,play_counter,order,pic_position,distance,chosen_pic,test_lang,testing_loc,tester,date_of_birth,ethnicity,native_lang,other_langs,parental_occ,dev_info,birth_order,num_siblings,gender
3Itmx,1,0,fem_plain,fem_sws,1,glasses,fireman,fireman,fireman,glasses,fem_plain_fem_sws,training,3/9/2017,10:04,left,false,8451,7,2_1_1_1,word_1_word_2,near,fireman,Clear_After,preschool,hanna,2013-06-05,,English,,,,2,1,female
3Itmx,1,0,fem_plain,fem_sws,2,glasses,fireman,fireman,fireman,glasses,fem_plain_fem_sws,training,3/9/2017,10:04,right,false,2873,2,2_1_1_1,word_1_word_2,near,glasses,Clear_After,preschool,hanna,2013-06-05,,English,,,,2,1,female
3Itmx,1,0,fem_plain,fem_sws,3,glasses,fireman,fireman,fireman,glasses,fem_plain_fem_sws,training,3/9/2017,10:04,left,true,2000,1,2_1_1_1,word_1_word_2,near,fireman,Clear_After,preschool,hanna,2013-06-05,,English,,,,2,1,female
3Itmx,2,2,fem_plain,fem_sws,1,chicken,bed,chicken,chicken,bed,fem_plain_fem_sws,critical,3/9/2017,10:04,right,false,11808,6,2_1_2_1,word_2_word_1,far,bed,Clear_After,preschool,hanna,2013-06-05,,English,,,,2,1,female
3Itmx,2,2,fem_plain,fem_sws,2,chicken,bed,chicken,chicken,bed,fem_plain_fem_sws,critical,3/9/2017,10:04,left,false,3317,2,2_1_2_1,word_2_word_1,far,chicken,Clear_After,preschool,hanna,2013-06-05,,English,,,,2,1,female
3Itmx,2,2,fem_plain,fem_sws,3,chicken,bed,chicken,chicken,bed,fem_plain_fem_sws,critical,3/9/2017,10:04,right,false,3157,3,2_1_2_1,word_2_word_1,far,bed,Clear_After,preschool,hanna,2013-06-05,,English,,,,2,1,female
3Itmx,3,24,fem_plain,fem_sws,1,sink,fish,fish,fish,sink,fem_plain_fem_sws,critical,3/9/2017,10:04,right,true,8348,2,1_2_2_1,word_2_word_1,near,sink,Clear_After,preschool,hanna,2013-06-05,,English,,,,2,1,female
3Itmx,3,24,fem_plain,fem_sws,2,sink,fish,fish,fish,sink,fem_plain_fem_sws,critical,3/9/2017,10:04,right,false,3118,2,1_2_2_1,word_2_word_1,near,sink,Clear_After,preschool,hanna,2013-06-05,,English,,,,2,1,female
3Itmx,3,24,fem_plain,fem_sws,3,sink,fish,fish,fish,sink,fem_plain_fem_sws,critical,3/9/2017,10:04,left,true,2283,2,1_2_2_1,word_2_word_1,near,fish,Clear_After,preschool,hanna,2013-06-05,,English,,,,2,1,female
3Itmx,4,12,fem_plain,fem_sws,1,yoghurt,foot,foot,foot,yoghurt,fem_plain_fem_sws,critical,3/9/2017,10:04,left,false,6180,2,1_2_2_1,word_1_word_2,near,foot,Clear_After,preschool,hanna,2013-06-05,,English,,,,2,1,female
3Itmx,4,12,fem_plain,fem_sws,2,yoghurt,foot,foot,foot,yoghurt,fem_plain_fem_sws,critical,3/9/2017,10:04,right,false,940,4,1_2_2_1,word_1_word_2,near,yoghurt,Clear_After,preschool,hanna,2013-06-05,,English,,,,2,1,female
3Itmx,4,12,fem_plain,fem_sws,3,yoghurt,foot,foot,foot,yoghurt,fem_plain_fem_sws,critical,3/9/2017,10:04,left,true,1888,2,1_2_2_1,word_1_word_2,near,foot,Clear_After,preschool,hanna,2013-06-05,,English,,,,2,1,female
3Itmx,5,6,fem_plain,fem_sws,1,bird,peas,bird,peas,bird,fem_plain_fem_sws,critical,3/9/2017,10:04,left,false,7847,4,1_2_1_1,word_2_word_1,far,peas,Clear_After,preschool,hanna,2013-06-05,,English,,,,2,1,female
3Itmx,5,6,fem_plain,fem_sws,2,bird,peas,bird,peas,bird,fem_plain_fem_sws,critical,3/9/2017,10:04,right,false,2364,1,1_2_1_1,word_2_word_1,far,bird,Clear_After,preschool,hanna,2013-06-05,,English,,,,2,1,female
3Itmx,5,6,fem_plain,fem_sws,3,bird,peas,bird,peas,bird,fem_plain_fem_sws,critical,3/9/2017,10:04,left,false,2780,1,1_2_1_1,word_2_word_1,far,peas,Clear_After,preschool,hanna,2013-06-05,,English,,,,2,1,female
3Itmx,6,14,fem_plain,fem_sws,1,shoes,cheese,cheese,shoes,cheese,fem_plain_fem_sws,critical,3/9/2017,10:04,left,true,5659,2,2_1_1_1,word_2_word_1,near,shoes,Clear_After,preschool,hanna,2013-06-05,,English,,,,2,1,female
3Itmx,6,14,fem_plain,fem_sws,2,shoes,cheese,cheese,shoes,cheese,fem_plain_fem_sws,critical,3/9/2017,10:04,left,false,2397,2,2_1_1_1,word_2_word_1,near,shoes,Clear_After,preschool,hanna,2013-06-05,,English,,,,2,1,female
3Itmx,6,14,fem_plain,fem_sws,3,shoes,cheese,cheese,shoes,cheese,fem_plain_fem_sws,critical,3/9/2017,10:04,right,true,2555,1,2_1_1_1,word_2_word_1,near,cheese,Clear_After,preschool,hanna,2013-06-05,,English,,,,2,1,female
3Itmx,7,17,fem_plain,fem_sws,1,ambulance,cake,cake,cake,ambulance,fem_plain_fem_sws,critical,3/9/2017,10:04,right,true,5106,2,1_2_2_1,word_1_word_2,near,ambulance,Clear_After,preschool,hanna,2013-06-05,,English,,,,2,1,female
3Itmx,7,17,fem_plain,fem_sws,2,ambulance,cake,cake,cake,ambulance,fem_plain_fem_sws,critical,3/9/2017,10:04,right,false,2290,1,1_2_2_1,word_1_word_2,near,ambulance,Clear_After,preschool,hanna,2013-06-05,,English,,,,2,1,female
3Itmx,7,17,fem_plain,fem_sws,3,ambulance,cake,cake,cake,ambulance,fem_plain_fem_sws,critical,3/9/2017,10:04,left,true,2284,1,1_2_2_1,word_1_word_2,near,cake,Clear_After,preschool,hanna,2013-06-05,,English,,,,2,1,female
3Itmx,8,22,fem_plain,fem_sws,1,dog,bike,dog,bike,dog,fem_plain_fem_sws,critical,3/9/2017,10:04,right,true,3559,4,1_2_1_1,word_1_word_2,far,dog,Clear_After,preschool,hanna,2013-06-05,,English,,,,2,1,female
3Itmx,8,22,fem_plain,fem_sws,2,dog,bike,dog,bike,dog,fem_plain_fem_sws,critical,3/9/2017,10:04,right,false,2285,2,1_2_1_1,word_1_word_2,far,dog,Clear_After,preschool,hanna,2013-06-05,,English,,,,2,1,female
3Itmx,8,22,fem_plain,fem_sws,3,dog,bike,dog,bike,dog,fem_plain_fem_sws,critical,3/9/2017,10:04,left,false,2362,2,1_2_1_1,word_1_word_2,far,bike,Clear_After,preschool,hanna,2013-06-05,,English,,,,2,1,female
3Itmx,9,4,fem_plain,fem_sws,1,coat,strawberry,coat,strawberry,coat,fem_plain_fem_sws,critical,3/9/2017,10:04,left,false,4491,4,1_2_1_1,word_2_word_1,far,strawberry,Clear_After,preschool,hanna,2013-06-05,,English,,,,2,1,female
3Itmx,9,4,fem_plain,fem_sws,2,coat,strawberry,coat,strawberry,coat,fem_plain_fem_sws,critical,3/9/2017,10:04,right,false,2686,1,1_2_1_1,word_2_word_1,far,coat,Clear_After,preschool,hanna,2013-06-05,,English,,,,2,1,female
3Itmx,9,4,fem_plain,fem_sws,3,coat,strawberry,coat,strawberry,coat,fem_plain_fem_sws,critical,3/9/2017,10:04,left,false,2066,1,1_2_1_1,word_2_word_1,far,strawberry,Clear_After,preschool,hanna,2013-06-05,,English,,,,2,1,female
3Itmx,10,23,fem_plain,fem_sws,1,teddy_bear,bath,teddy_bear,teddy_bear,bath,fem_plain_fem_sws,critical,3/9/2017,10:04,left,true,3542,2,2_1_2_1,word_2_word_1,far,teddy_bear,Clear_After,preschool,hanna,2013-06-05,,English,,,,2,1,female
3Itmx,10,23,fem_plain,fem_sws,2,teddy_bear,bath,teddy_bear,teddy_bear,bath,fem_plain_fem_sws,critical,3/9/2017,10:04,left,false,2892,2,2_1_2_1,word_2_word_1,far,teddy_bear,Clear_After,preschool,hanna,2013-06-05,,English,,,,2,1,female
3Itmx,10,23,fem_plain,fem_sws,3,teddy_bear,bath,teddy_bear,teddy_bear,bath,fem_plain_fem_sws,critical,3/9/2017,10:04,right,false,747,4,2_1_2_1,word_2_word_1,far,bath,Clear_After,preschool,hanna,2013-06-05,,English,,,,2,1,female
3Itmx,11,15,fem_plain,fem_sws,1,slide,pencil,slide,pencil,slide,fem_plain_fem_sws,critical,3/9/2017,10:04,right,true,5258,2,1_2_1_1,word_2_word_1,far,slide,Clear_After,preschool,hanna,2013-06-05,,English,,,,2,1,female
3Itmx,11,15,fem_plain,fem_sws,2,slide,pencil,slide,pencil,slide,fem_plain_fem_sws,critical,3/9/2017,10:04,right,false,2334,2,1_2_1_1,word_2_word_1,far,slide,Clear_After,preschool,hanna,2013-06-05,,English,,,,2,1,female
3Itmx,11,15,fem_plain,fem_sws,3,slide,pencil,slide,pencil,slide,fem_plain_fem_sws,critical,3/9/2017,10:04,left,false,2309,2,1_2_1_1,word_2_word_1,far,pencil,Clear_After,preschool,hanna,2013-06-05,,English,,,,2,1,female
3Itmx,12,10,fem_plain,fem_sws,1,tshirt,pig,tshirt,tshirt,pig,fem_plain_fem_sws,critical,3/9/2017,10:04,right,false,3671,4,1_2_1_1,word_2_word_1,far,pig,Clear_After,preschool,hanna,2013-06-05,,English,,,,2,1,female
3Itmx,12,10,fem_plain,fem_sws,2,tshirt,pig,tshirt,tshirt,pig,fem_plain_fem_sws,critical,3/9/2017,10:04,left,false,3360,1,1_2_1_1,word_2_word_1,far,tshirt,Clear_After,preschool,hanna,2013-06-05,,English,,,,2,1,female
3Itmx,12,10,fem_plain,fem_sws,3,tshirt,pig,tshirt,tshirt,pig,fem_plain_fem_sws,critical,3/9/2017,10:04,right,false,1811,1,1_2_1_1,word_2_word_1,far,pig,Clear_After,preschool,hanna,2013-06-05,,English,,,,2,1,female
3Itmx,13,1,fem_plain,fem_sws,1,spoon,baby,spoon,baby,spoon,fem_plain_fem_sws,critical,3/9/2017,10:04,right,true,3781,2,2_1_2_1,word_2_word_1,far,spoon,Clear_After,preschool,hanna,2013-06-05,,English,,,,2,1,female
3Itmx,13,1,fem_plain,fem_sws,2,spoon,baby,spoon,baby,spoon,fem_plain_fem_sws,critical,3/9/2017,10:04,right,false,2381,1,2_1_2_1,word_2_word_1,far,spoon,Clear_After,preschool,hanna,2013-06-05,,English,,,,2,1,female
3Itmx,13,1,fem_plain,fem_sws,3,spoon,baby,spoon,baby,spoon,fem_plain_fem_sws,critical,3/9/2017,10:04,left,false,2081,4,2_1_2_1,word_2_word_1,far,baby,Clear_After,preschool,hanna,2013-06-05,,English,,,,2,1,female
3Itmx,14,21,fem_plain,fem_sws,1,sheep,frog,sheep,sheep,frog,fem_plain_fem_sws,critical,3/9/2017,10:04,right,false,2972,4,1_2_1_1,word_2_word_1,far,frog,Clear_After,preschool,hanna,2013-06-05,,English,,,,2,1,female
3Itmx,14,21,fem_plain,fem_sws,2,sheep,frog,sheep,sheep,frog,fem_plain_fem_sws,critical,3/9/2017,10:04,left,false,2099,1,1_2_1_1,word_2_word_1,far,sheep,Clear_After,preschool,hanna,2013-06-05,,English,,,,2,1,female
3Itmx,14,21,fem_plain,fem_sws,3,sheep,frog,sheep,sheep,frog,fem_plain_fem_sws,critical,3/9/2017,10:04,right,false,2551,2,1_2_1_1,word_2_word_1,far,frog,Clear_After,preschool,hanna,2013-06-05,,English,,,,2,1,female
3Itmx,15,20,fem_plain,fem_sws,1,rabbit,jumper,rabbit,jumper,rabbit,fem_plain_fem_sws,critical,3/9/2017,10:04,right,true,3869,2,2_1_2_1,word_1_word_2,far,rabbit,Clear_After,preschool,hanna,2013-06-05,,English,,,,2,1,female
3Itmx,15,20,fem_plain,fem_sws,2,rabbit,jumper,rabbit,jumper,rabbit,fem_plain_fem_sws,critical,3/9/2017,10:04,right,false,2621,2,2_1_2_1,word_1_word_2,far,rabbit,Clear_After,preschool,hanna,2013-06-05,,English,,,,2,1,female
3Itmx,15,20,fem_plain,fem_sws,3,rabbit,jumper,rabbit,jumper,rabbit,fem_plain_fem_sws,critical,3/9/2017,10:04,left,false,1737,1,2_1_2_1,word_1_word_2,far,jumper,Clear_After,preschool,hanna,2013-06-05,,English,,,,2,1,female
3Itmx,16,7,fem_plain,fem_sws,1,lolly,horse,lolly,lolly,horse,fem_plain_fem_sws,critical,3/9/2017,10:04,left,true,2851,2,2_1_2_1,word_1_word_2,far,lolly,Clear_After,preschool,hanna,2013-06-05,,English,,,,2,1,female
3Itmx,16,7,fem_plain,fem_sws,2,lolly,horse,lolly,lolly,horse,fem_plain_fem_sws,critical,3/9/2017,10:04,left,false,2981,1,2_1_2_1,word_1_word_2,far,lolly,Clear_After,preschool,hanna,2013-06-05,,English,,,,2,1,female
3Itmx,16,7,fem_plain,fem_sws,3,lolly,horse,lolly,lolly,horse,fem_plain_fem_sws,critical,3/9/2017,10:04,right,false,2070,1,2_1_2_1,word_1_word_2,far,horse,Clear_After,preschool,hanna,2013-06-05,,English,,,,2,1,female
3Itmx,17,13,fem_plain,fem_sws,1,toothbrush,airplane,airplane,toothbrush,airplane,fem_plain_fem_sws,critical,3/9/2017,10:04,left,true,3565,4,1_2_2_1,word_1_word_2,near,toothbrush,Clear_After,preschool,hanna,2013-06-05,,English,,,,2,1,female
3Itmx,17,13,fem_plain,fem_sws,2,toothbrush,airplane,airplane,toothbrush,airplane,fem_plain_fem_sws,critical,3/9/2017,10:04,left,false,2246,1,1_2_2_1,word_1_word_2,near,toothbrush,Clear_After,preschool,hanna,2013-06-05,,English,,,,2,1,female
3Itmx,17,13,fem_plain,fem_sws,3,toothbrush,airplane,airplane,toothbrush,airplane,fem_plain_fem_sws,critical,3/9/2017,10:04,right,true,1816,1,1_2_2_1,word_1_word_2,near,airplane,Clear_After,preschool,hanna,2013-06-05,,English,,,,2,1,female
3Itmx,18,18,fem_plain,fem_sws,1,raspberry,ball,ball,raspberry,ball,fem_plain_fem_sws,critical,3/9/2017,10:04,left,true,4650,4,2_1_1_1,word_2_word_1,near,raspberry,Clear_After,preschool,hanna,2013-06-05,,English,,,,2,1,female
3Itmx,18,18,fem_plain,fem_sws,2,raspberry,ball,ball,raspberry,ball,fem_plain_fem_sws,critical,3/9/2017,10:04,left,false,3120,1,2_1_1_1,word_2_word_1,near,raspberry,Clear_After,preschool,hanna,2013-06-05,,English,,,,2,1,female
3Itmx,18,18,fem_plain,fem_sws,3,raspberry,ball,ball,raspberry,ball,fem_plain_fem_sws,critical,3/9/2017,10:04,right,true,2296,1,2_1_1_1,word_2_word_1,near,ball,Clear_After,preschool,hanna,2013-06-05,,English,,,,2,1,female
3Itmx,19,5,fem_plain,fem_sws,1,orange,car,car,car,orange,fem_plain_fem_sws,critical,3/9/2017,10:04,right,true,5261,2,1_2_2_1,word_2_word_1,near,orange,Clear_After,preschool,hanna,2013-06-05,,English,,,,2,1,female
3Itmx,19,5,fem_plain,fem_sws,2,orange,car,car,car,orange,fem_plain_fem_sws,critical,3/9/2017,10:04,right,false,3094,1,1_2_2_1,word_2_word_1,near,orange,Clear_After,preschool,hanna,2013-06-05,,English,,,,2,1,female
3Itmx,19,5,fem_plain,fem_sws,3,orange,car,car,car,orange,fem_plain_fem_sws,critical,3/9/2017,10:04,left,true,2133,1,1_2_2_1,word_2_word_1,near,car,Clear_After,preschool,hanna,2013-06-05,,English,,,,2,1,female
3Itmx,20,8,fem_plain,fem_sws,1,fire_engine,wellyboots,wellyboots,wellyboots,fire_engine,fem_plain_fem_sws,critical,3/9/2017,10:04,left,false,3643,2,2_1_1_1,word_1_word_2,near,wellyboots,Clear_After,preschool,hanna,2013-06-05,,English,,,,2,1,female
3Itmx,20,8,fem_plain,fem_sws,2,fire_engine,wellyboots,wellyboots,wellyboots,fire_engine,fem_plain_fem_sws,critical,3/9/2017,10:04,right,false,3397,1,2_1_1_1,word_1_word_2,near,fire_engine,Clear_After,preschool,hanna,2013-06-05,,English,,,,2,1,female
3Itmx,20,8,fem_plain,fem_sws,3,fire_engine,wellyboots,wellyboots,wellyboots,fire_engine,fem_plain_fem_sws,critical,3/9/2017,10:04,left,true,2418,1,2_1_1_1,word_1_word_2,near,wellyboots,Clear_After,preschool,hanna,2013-06-05,,English,,,,2,1,female
3Itmx,21,19,fem_plain,fem_sws,1,building_blocks,santa,santa,santa,building_blocks,fem_plain_fem_sws,critical,3/9/2017,10:04,right,true,7164,2,2_1_1_1,word_1_word_2,near,building_blocks,Clear_After,preschool,hanna,2013-06-05,,English,,,,2,1,female
3Itmx,21,19,fem_plain,fem_sws,2,building_blocks,santa,santa,santa,building_blocks,fem_plain_fem_sws,critical,3/9/2017,10:04,right,false,2599,1,2_1_1_1,word_1_word_2,near,building_blocks,Clear_After,preschool,hanna,2013-06-05,,English,,,,2,1,female
3Itmx,21,19,fem_plain,fem_sws,3,building_blocks,santa,santa,santa,building_blocks,fem_plain_fem_sws,critical,3/9/2017,10:04,left,true,3045,2,2_1_1_1,word_1_word_2,near,santa,Clear_After,preschool,hanna,2013-06-05,,English,,,,2,1,female
3Itmx,22,16,fem_plain,fem_sws,1,paintbrush,banana,banana,banana,paintbrush,fem_plain_fem_sws,critical,3/9/2017,10:04,right,true,3567,2,1_2_2_1,word_2_word_1,near,paintbrush,Clear_After,preschool,hanna,2013-06-05,,English,,,,2,1,female
3Itmx,22,16,fem_plain,fem_sws,2,paintbrush,banana,banana,banana,paintbrush,fem_plain_fem_sws,critical,3/9/2017,10:04,right,false,2587,1,1_2_2_1,word_2_word_1,near,paintbrush,Clear_After,preschool,hanna,2013-06-05,,English,,,,2,1,female
3Itmx,22,16,fem_plain,fem_sws,3,paintbrush,banana,banana,banana,paintbrush,fem_plain_fem_sws,critical,3/9/2017,10:04,left,true,1820,1,1_2_2_1,word_2_word_1,near,banana,Clear_After,preschool,hanna,2013-06-05,,English,,,,2,1,female
3Itmx,23,9,fem_plain,fem_sws,1,window,pizza,window,pizza,window,fem_plain_fem_sws,critical,3/9/2017,10:04,left,false,954,2,2_1_2_1,word_1_word_2,far,pizza,Clear_After,preschool,hanna,2013-06-05,,English,,,,2,1,female
3Itmx,23,9,fem_plain,fem_sws,2,window,pizza,window,pizza,window,fem_plain_fem_sws,critical,3/9/2017,10:04,right,false,2298,2,2_1_2_1,word_1_word_2,far,window,Clear_After,preschool,hanna,2013-06-05,,English,,,,2,1,female
3Itmx,23,9,fem_plain,fem_sws,3,window,pizza,window,pizza,window,fem_plain_fem_sws,critical,3/9/2017,10:04,left,false,2647,2,2_1_2_1,word_1_word_2,far,pizza,Clear_After,preschool,hanna,2013-06-05,,English,,,,2,1,female
3Itmx,24,3,fem_plain,fem_sws,1,trousers,nose,nose,nose,trousers,fem_plain_fem_sws,critical,3/9/2017,10:04,right,true,3580,4,2_1_1_1,word_2_word_1,near,trousers,Clear_After,preschool,hanna,2013-06-05,,English,,,,2,1,female
3Itmx,24,3,fem_plain,fem_sws,2,trousers,nose,nose,nose,trousers,fem_plain_fem_sws,critical,3/9/2017,10:04,right,false,1997,1,2_1_1_1,word_2_word_1,near,trousers,Clear_After,preschool,hanna,2013-06-05,,English,,,,2,1,female
3Itmx,24,3,fem_plain,fem_sws,3,trousers,nose,nose,nose,trousers,fem_plain_fem_sws,critical,3/9/2017,10:04,left,true,2455,1,2_1_1_1,word_2_word_1,near,nose,Clear_After,preschool,hanna,2013-06-05,,English,,,,2,1,female
3Itmx,25,11,fem_plain,fem_sws,1,book,lorry,book,lorry,book,fem_plain_fem_sws,critical,3/9/2017,10:04,right,true,2041,2,1_2_1_1,word_2_word_1,far,book,Clear_After,preschool,hanna,2013-06-05,,English,,,,2,1,female
3Itmx,25,11,fem_plain,fem_sws,2,book,lorry,book,lorry,book,fem_plain_fem_sws,critical,3/9/2017,10:04,right,false,2676,2,1_2_1_1,word_2_word_1,far,book,Clear_After,preschool,hanna,2013-06-05,,English,,,,2,1,female
3Itmx,25,11,fem_plain,fem_sws,3,book,lorry,book,lorry,book,fem_plain_fem_sws,critical,3/9/2017,10:04,left,false,2312,2,1_2_1_1,word_2_word_1,far,lorry,Clear_After,preschool,hanna,2013-06-05,,English,,,,2,1,female
