subject_id,trial_number,trial_id,plain,sws,instruction_number,sound1_item,sound2_item,sound3_item,left_image,right_image,sound_gender,trial_type,date_stamp,time_stamp,side_chosen,accuracy,rt,play_counter,order,pic_position,distance,chosen_pic,test_lang,testing_loc,tester,date_of_birth,ethnicity,native_lang,other_langs,parental_occ,dev_info,birth_order,num_siblings,gender
3lPVg,1,0,mal_plain,fem_sws,1,fireman,glasses,fireman,glasses,fireman,mal_plain_fem_sws,training,2/16/2017,9:26,right,true,2565,5,2_1_2_1,word_2_word_1,far,fireman,Clear_Before,preschool,hanna,2013-12-03,,English,,,,2,1,female
3lPVg,1,0,mal_plain,fem_sws,2,fireman,glasses,fireman,glasses,fireman,mal_plain_fem_sws,training,2/16/2017,9:26,left,true,2193,2,2_1_2_1,word_2_word_1,far,glasses,Clear_Before,preschool,hanna,2013-12-03,,English,,,,2,1,female
3lPVg,1,0,mal_plain,fem_sws,3,fireman,glasses,fireman,glasses,fireman,mal_plain_fem_sws,training,2/16/2017,9:26,right,true,8552,18,2_1_2_1,word_2_word_1,far,fireman,Clear_Before,preschool,hanna,2013-12-03,,English,,,,2,1,female
3lPVg,2,13,mal_plain,fem_sws,1,airplane,toothbrush,toothbrush,toothbrush,airplane,mal_plain_fem_sws,critical,2/16/2017,9:26,right,true,2070,2,2_1_1_1,word_1_word_2,near,airplane,Clear_Before,preschool,hanna,2013-12-03,,English,,,,2,1,female
3lPVg,2,13,mal_plain,fem_sws,2,airplane,toothbrush,toothbrush,toothbrush,airplane,mal_plain_fem_sws,critical,2/16/2017,9:26,left,true,1993,2,2_1_1_1,word_1_word_2,near,toothbrush,Clear_Before,preschool,hanna,2013-12-03,,English,,,,2,1,female
3lPVg,2,13,mal_plain,fem_sws,3,airplane,toothbrush,toothbrush,toothbrush,airplane,mal_plain_fem_sws,critical,2/16/2017,9:26,left,true,7098,3,2_1_1_1,word_1_word_2,near,toothbrush,Clear_Before,preschool,hanna,2013-12-03,,English,,,,2,1,female
3lPVg,3,21,mal_plain,fem_sws,1,sheep,frog,frog,sheep,frog,mal_plain_fem_sws,critical,2/16/2017,9:26,right,false,489,2,1_2_2_1,word_2_word_1,near,frog,Clear_Before,preschool,hanna,2013-12-03,,English,,,,2,1,female
3lPVg,3,21,mal_plain,fem_sws,2,sheep,frog,frog,sheep,frog,mal_plain_fem_sws,critical,2/16/2017,9:26,left,false,180,1,1_2_2_1,word_2_word_1,near,sheep,Clear_Before,preschool,hanna,2013-12-03,,English,,,,2,1,female
3lPVg,3,21,mal_plain,fem_sws,3,sheep,frog,frog,sheep,frog,mal_plain_fem_sws,critical,2/16/2017,9:26,right,true,8512,5,1_2_2_1,word_2_word_1,near,frog,Clear_Before,preschool,hanna,2013-12-03,,English,,,,2,1,female
3lPVg,4,16,mal_plain,fem_sws,1,banana,paintbrush,banana,banana,paintbrush,mal_plain_fem_sws,critical,2/16/2017,9:26,left,true,2148,2,1_2_1_1,word_2_word_1,far,banana,Clear_Before,preschool,hanna,2013-12-03,,English,,,,2,1,female
3lPVg,4,16,mal_plain,fem_sws,2,banana,paintbrush,banana,banana,paintbrush,mal_plain_fem_sws,critical,2/16/2017,9:26,right,true,2397,1,1_2_1_1,word_2_word_1,far,paintbrush,Clear_Before,preschool,hanna,2013-12-03,,English,,,,2,1,female
3lPVg,4,16,mal_plain,fem_sws,3,banana,paintbrush,banana,banana,paintbrush,mal_plain_fem_sws,critical,2/16/2017,9:26,right,false,290,1,1_2_1_1,word_2_word_1,far,paintbrush,Clear_Before,preschool,hanna,2013-12-03,,English,,,,2,1,female
3lPVg,5,4,mal_plain,fem_sws,1,coat,strawberry,strawberry,strawberry,coat,mal_plain_fem_sws,critical,2/16/2017,9:26,left,false,963,2,2_1_1_1,word_2_word_1,near,strawberry,Clear_Before,preschool,hanna,2013-12-03,,English,,,,2,1,female
3lPVg,5,4,mal_plain,fem_sws,2,coat,strawberry,strawberry,strawberry,coat,mal_plain_fem_sws,critical,2/16/2017,9:26,left,true,2352,4,2_1_1_1,word_2_word_1,near,strawberry,Clear_Before,preschool,hanna,2013-12-03,,English,,,,2,1,female
3lPVg,5,4,mal_plain,fem_sws,3,coat,strawberry,strawberry,strawberry,coat,mal_plain_fem_sws,critical,2/16/2017,9:26,right,false,5945,10,2_1_1_1,word_2_word_1,near,coat,Clear_Before,preschool,hanna,2013-12-03,,English,,,,2,1,female
3lPVg,6,23,mal_plain,fem_sws,1,bath,teddy_bear,bath,bath,teddy_bear,mal_plain_fem_sws,critical,2/16/2017,9:26,left,true,2580,2,1_2_1_1,word_1_word_2,far,bath,Clear_Before,preschool,hanna,2013-12-03,,English,,,,2,1,female
3lPVg,6,23,mal_plain,fem_sws,2,bath,teddy_bear,bath,bath,teddy_bear,mal_plain_fem_sws,critical,2/16/2017,9:26,right,true,2145,2,1_2_1_1,word_1_word_2,far,teddy_bear,Clear_Before,preschool,hanna,2013-12-03,,English,,,,2,1,female
3lPVg,6,23,mal_plain,fem_sws,3,bath,teddy_bear,bath,bath,teddy_bear,mal_plain_fem_sws,critical,2/16/2017,9:26,right,false,4559,6,1_2_1_1,word_1_word_2,far,teddy_bear,Clear_Before,preschool,hanna,2013-12-03,,English,,,,2,1,female
3lPVg,7,17,mal_plain,fem_sws,1,cake,ambulance,cake,cake,ambulance,mal_plain_fem_sws,critical,2/16/2017,9:26,left,true,2374,2,1_2_1_1,word_1_word_2,far,cake,Clear_Before,preschool,hanna,2013-12-03,,English,,,,2,1,female
3lPVg,7,17,mal_plain,fem_sws,2,cake,ambulance,cake,cake,ambulance,mal_plain_fem_sws,critical,2/16/2017,9:26,right,true,2393,2,1_2_1_1,word_1_word_2,far,ambulance,Clear_Before,preschool,hanna,2013-12-03,,English,,,,2,1,female
3lPVg,7,17,mal_plain,fem_sws,3,cake,ambulance,cake,cake,ambulance,mal_plain_fem_sws,critical,2/16/2017,9:26,right,false,6455,7,1_2_1_1,word_1_word_2,far,ambulance,Clear_Before,preschool,hanna,2013-12-03,,English,,,,2,1,female
3lPVg,8,2,mal_plain,fem_sws,1,chicken,bed,bed,bed,chicken,mal_plain_fem_sws,critical,2/16/2017,9:26,right,true,3074,2,1_2_2_1,word_1_word_2,near,chicken,Clear_Before,preschool,hanna,2013-12-03,,English,,,,2,1,female
3lPVg,8,2,mal_plain,fem_sws,2,chicken,bed,bed,bed,chicken,mal_plain_fem_sws,critical,2/16/2017,9:26,left,true,2393,1,1_2_2_1,word_1_word_2,near,bed,Clear_Before,preschool,hanna,2013-12-03,,English,,,,2,1,female
3lPVg,8,2,mal_plain,fem_sws,3,chicken,bed,bed,bed,chicken,mal_plain_fem_sws,critical,2/16/2017,9:26,left,true,10150,4,1_2_2_1,word_1_word_2,near,bed,Clear_Before,preschool,hanna,2013-12-03,,English,,,,2,1,female
3lPVg,9,10,mal_plain,fem_sws,1,tshirt,pig,pig,tshirt,pig,mal_plain_fem_sws,critical,2/16/2017,9:26,left,true,2845,2,1_2_2_1,word_2_word_1,near,tshirt,Clear_Before,preschool,hanna,2013-12-03,,English,,,,2,1,female
3lPVg,9,10,mal_plain,fem_sws,2,tshirt,pig,pig,tshirt,pig,mal_plain_fem_sws,critical,2/16/2017,9:26,right,true,2045,1,1_2_2_1,word_2_word_1,near,pig,Clear_Before,preschool,hanna,2013-12-03,,English,,,,2,1,female
3lPVg,9,10,mal_plain,fem_sws,3,tshirt,pig,pig,tshirt,pig,mal_plain_fem_sws,critical,2/16/2017,9:26,left,false,4677,4,1_2_2_1,word_2_word_1,near,tshirt,Clear_Before,preschool,hanna,2013-12-03,,English,,,,2,1,female
3lPVg,10,1,mal_plain,fem_sws,1,baby,spoon,spoon,spoon,baby,mal_plain_fem_sws,critical,2/16/2017,9:26,right,true,6747,2,2_1_1_1,word_1_word_2,near,baby,Clear_Before,preschool,hanna,2013-12-03,,English,,,,2,1,female
3lPVg,10,1,mal_plain,fem_sws,2,baby,spoon,spoon,spoon,baby,mal_plain_fem_sws,critical,2/16/2017,9:26,left,true,1685,2,2_1_1_1,word_1_word_2,near,spoon,Clear_Before,preschool,hanna,2013-12-03,,English,,,,2,1,female
3lPVg,10,1,mal_plain,fem_sws,3,baby,spoon,spoon,spoon,baby,mal_plain_fem_sws,critical,2/16/2017,9:26,right,false,5479,7,2_1_1_1,word_1_word_2,near,baby,Clear_Before,preschool,hanna,2013-12-03,,English,,,,2,1,female
3lPVg,11,24,mal_plain,fem_sws,1,fish,sink,sink,fish,sink,mal_plain_fem_sws,critical,2/16/2017,9:26,left,true,2337,1,2_1_1_1,word_2_word_1,near,fish,Clear_Before,preschool,hanna,2013-12-03,,English,,,,2,1,female
3lPVg,11,24,mal_plain,fem_sws,2,fish,sink,sink,fish,sink,mal_plain_fem_sws,critical,2/16/2017,9:26,right,true,2643,1,2_1_1_1,word_2_word_1,near,sink,Clear_Before,preschool,hanna,2013-12-03,,English,,,,2,1,female
3lPVg,11,24,mal_plain,fem_sws,3,fish,sink,sink,fish,sink,mal_plain_fem_sws,critical,2/16/2017,9:26,left,false,6746,3,2_1_1_1,word_2_word_1,near,fish,Clear_Before,preschool,hanna,2013-12-03,,English,,,,2,1,female
3lPVg,12,7,mal_plain,fem_sws,1,lolly,horse,horse,horse,lolly,mal_plain_fem_sws,critical,2/16/2017,9:26,right,true,2688,2,2_1_1_1,word_2_word_1,near,lolly,Clear_Before,preschool,hanna,2013-12-03,,English,,,,2,1,female
3lPVg,12,7,mal_plain,fem_sws,2,lolly,horse,horse,horse,lolly,mal_plain_fem_sws,critical,2/16/2017,9:26,left,true,2783,2,2_1_1_1,word_2_word_1,near,horse,Clear_Before,preschool,hanna,2013-12-03,,English,,,,2,1,female
3lPVg,12,7,mal_plain,fem_sws,3,lolly,horse,horse,horse,lolly,mal_plain_fem_sws,critical,2/16/2017,9:26,right,false,4429,1,2_1_1_1,word_2_word_1,near,lolly,Clear_Before,preschool,hanna,2013-12-03,,English,,,,2,1,female
3lPVg,13,15,mal_plain,fem_sws,1,pencil,slide,slide,pencil,slide,mal_plain_fem_sws,critical,2/16/2017,9:26,left,true,2417,2,1_2_2_1,word_2_word_1,near,pencil,Clear_Before,preschool,hanna,2013-12-03,,English,,,,2,1,female
3lPVg,13,15,mal_plain,fem_sws,2,pencil,slide,slide,pencil,slide,mal_plain_fem_sws,critical,2/16/2017,9:26,right,true,2240,5,1_2_2_1,word_2_word_1,near,slide,Clear_Before,preschool,hanna,2013-12-03,,English,,,,2,1,female
3lPVg,13,15,mal_plain,fem_sws,3,pencil,slide,slide,pencil,slide,mal_plain_fem_sws,critical,2/16/2017,9:26,right,true,9329,5,1_2_2_1,word_2_word_1,near,slide,Clear_Before,preschool,hanna,2013-12-03,,English,,,,2,1,female
3lPVg,14,12,mal_plain,fem_sws,1,foot,yoghurt,foot,yoghurt,foot,mal_plain_fem_sws,critical,2/16/2017,9:26,right,true,2794,2,2_1_2_1,word_2_word_1,far,foot,Clear_Before,preschool,hanna,2013-12-03,,English,,,,2,1,female
3lPVg,14,12,mal_plain,fem_sws,2,foot,yoghurt,foot,yoghurt,foot,mal_plain_fem_sws,critical,2/16/2017,9:26,left,true,3026,2,2_1_2_1,word_2_word_1,far,yoghurt,Clear_Before,preschool,hanna,2013-12-03,,English,,,,2,1,female
3lPVg,14,12,mal_plain,fem_sws,3,foot,yoghurt,foot,yoghurt,foot,mal_plain_fem_sws,critical,2/16/2017,9:26,left,false,11906,7,2_1_2_1,word_2_word_1,far,yoghurt,Clear_Before,preschool,hanna,2013-12-03,,English,,,,2,1,female
3lPVg,15,22,mal_plain,fem_sws,1,dog,bike,dog,bike,dog,mal_plain_fem_sws,critical,2/16/2017,9:26,right,true,1665,2,2_1_2_1,word_1_word_2,far,dog,Clear_Before,preschool,hanna,2013-12-03,,English,,,,2,1,female
3lPVg,15,22,mal_plain,fem_sws,2,dog,bike,dog,bike,dog,mal_plain_fem_sws,critical,2/16/2017,9:26,left,true,2048,2,2_1_2_1,word_1_word_2,far,bike,Clear_Before,preschool,hanna,2013-12-03,,English,,,,2,1,female
3lPVg,15,22,mal_plain,fem_sws,3,dog,bike,dog,bike,dog,mal_plain_fem_sws,critical,2/16/2017,9:26,right,true,3044,4,2_1_2_1,word_1_word_2,far,dog,Clear_Before,preschool,hanna,2013-12-03,,English,,,,2,1,female
3lPVg,16,5,mal_plain,fem_sws,1,orange,car,car,orange,car,mal_plain_fem_sws,critical,2/16/2017,9:26,left,true,2920,2,1_2_2_1,word_1_word_2,near,orange,Clear_Before,preschool,hanna,2013-12-03,,English,,,,2,1,female
3lPVg,16,5,mal_plain,fem_sws,2,orange,car,car,orange,car,mal_plain_fem_sws,critical,2/16/2017,9:26,right,true,2376,2,1_2_2_1,word_1_word_2,near,car,Clear_Before,preschool,hanna,2013-12-03,,English,,,,2,1,female
3lPVg,16,5,mal_plain,fem_sws,3,orange,car,car,orange,car,mal_plain_fem_sws,critical,2/16/2017,9:26,right,true,8478,2,1_2_2_1,word_1_word_2,near,car,Clear_Before,preschool,hanna,2013-12-03,,English,,,,2,1,female
3lPVg,17,9,mal_plain,fem_sws,1,pizza,window,pizza,pizza,window,mal_plain_fem_sws,critical,2/16/2017,9:26,left,true,4663,2,2_1_2_1,word_1_word_2,far,pizza,Clear_Before,preschool,hanna,2013-12-03,,English,,,,2,1,female
3lPVg,17,9,mal_plain,fem_sws,2,pizza,window,pizza,pizza,window,mal_plain_fem_sws,critical,2/16/2017,9:26,right,true,2242,2,2_1_2_1,word_1_word_2,far,window,Clear_Before,preschool,hanna,2013-12-03,,English,,,,2,1,female
3lPVg,17,9,mal_plain,fem_sws,3,pizza,window,pizza,pizza,window,mal_plain_fem_sws,critical,2/16/2017,9:26,left,true,9145,3,2_1_2_1,word_1_word_2,far,pizza,Clear_Before,preschool,hanna,2013-12-03,,English,,,,2,1,female
3lPVg,18,19,mal_plain,fem_sws,1,santa,building_blocks,santa,santa,building_blocks,mal_plain_fem_sws,critical,2/16/2017,9:26,left,true,9965,2,2_1_2_1,word_1_word_2,far,santa,Clear_Before,preschool,hanna,2013-12-03,,English,,,,2,1,female
3lPVg,18,19,mal_plain,fem_sws,2,santa,building_blocks,santa,santa,building_blocks,mal_plain_fem_sws,critical,2/16/2017,9:26,right,true,2231,2,2_1_2_1,word_1_word_2,far,building_blocks,Clear_Before,preschool,hanna,2013-12-03,,English,,,,2,1,female
3lPVg,18,19,mal_plain,fem_sws,3,santa,building_blocks,santa,santa,building_blocks,mal_plain_fem_sws,critical,2/16/2017,9:26,right,false,426,2,2_1_2_1,word_1_word_2,far,building_blocks,Clear_Before,preschool,hanna,2013-12-03,,English,,,,2,1,female
3lPVg,19,14,mal_plain,fem_sws,1,cheese,shoes,shoes,shoes,cheese,mal_plain_fem_sws,critical,2/16/2017,9:26,left,false,4913,13,2_1_1_1,word_2_word_1,near,shoes,Clear_Before,preschool,hanna,2013-12-03,,English,,,,2,1,female
3lPVg,19,14,mal_plain,fem_sws,2,cheese,shoes,shoes,shoes,cheese,mal_plain_fem_sws,critical,2/16/2017,9:26,right,false,2409,2,2_1_1_1,word_2_word_1,near,cheese,Clear_Before,preschool,hanna,2013-12-03,,English,,,,2,1,female
3lPVg,19,14,mal_plain,fem_sws,3,cheese,shoes,shoes,shoes,cheese,mal_plain_fem_sws,critical,2/16/2017,9:26,left,true,4074,2,2_1_1_1,word_2_word_1,near,shoes,Clear_Before,preschool,hanna,2013-12-03,,English,,,,2,1,female
3lPVg,20,8,mal_plain,fem_sws,1,wellyboots,fire_engine,wellyboots,wellyboots,fire_engine,mal_plain_fem_sws,critical,2/16/2017,9:26,left,true,1914,2,1_2_1_1,word_1_word_2,far,wellyboots,Clear_Before,preschool,hanna,2013-12-03,,English,,,,2,1,female
3lPVg,20,8,mal_plain,fem_sws,2,wellyboots,fire_engine,wellyboots,wellyboots,fire_engine,mal_plain_fem_sws,critical,2/16/2017,9:26,left,false,2214,2,1_2_1_1,word_1_word_2,far,wellyboots,Clear_Before,preschool,hanna,2013-12-03,,English,,,,2,1,female
3lPVg,20,8,mal_plain,fem_sws,3,wellyboots,fire_engine,wellyboots,wellyboots,fire_engine,mal_plain_fem_sws,critical,2/16/2017,9:26,right,false,3542,1,1_2_1_1,word_1_word_2,far,fire_engine,Clear_Before,preschool,hanna,2013-12-03,,English,,,,2,1,female
3lPVg,21,11,mal_plain,fem_sws,1,book,lorry,lorry,book,lorry,mal_plain_fem_sws,critical,2/16/2017,9:26,right,false,2810,2,1_2_2_1,word_1_word_2,near,lorry,Clear_Before,preschool,hanna,2013-12-03,,English,,,,2,1,female
3lPVg,21,11,mal_plain,fem_sws,2,book,lorry,lorry,book,lorry,mal_plain_fem_sws,critical,2/16/2017,9:26,left,false,627,1,1_2_2_1,word_1_word_2,near,book,Clear_Before,preschool,hanna,2013-12-03,,English,,,,2,1,female
3lPVg,21,11,mal_plain,fem_sws,3,book,lorry,lorry,book,lorry,mal_plain_fem_sws,critical,2/16/2017,9:26,right,true,5512,6,1_2_2_1,word_1_word_2,near,lorry,Clear_Before,preschool,hanna,2013-12-03,,English,,,,2,1,female
3lPVg,22,18,mal_plain,fem_sws,1,ball,raspberry,ball,ball,raspberry,mal_plain_fem_sws,critical,2/16/2017,9:26,right,false,7179,4,1_2_1_1,word_1_word_2,far,raspberry,Clear_Before,preschool,hanna,2013-12-03,,English,,,,2,1,female
3lPVg,22,18,mal_plain,fem_sws,2,ball,raspberry,ball,ball,raspberry,mal_plain_fem_sws,critical,2/16/2017,9:26,left,false,2579,1,1_2_1_1,word_1_word_2,far,ball,Clear_Before,preschool,hanna,2013-12-03,,English,,,,2,1,female
3lPVg,22,18,mal_plain,fem_sws,3,ball,raspberry,ball,ball,raspberry,mal_plain_fem_sws,critical,2/16/2017,9:26,right,false,3016,1,1_2_1_1,word_1_word_2,far,raspberry,Clear_Before,preschool,hanna,2013-12-03,,English,,,,2,1,female
3lPVg,23,20,mal_plain,fem_sws,1,rabbit,jumper,rabbit,jumper,rabbit,mal_plain_fem_sws,critical,2/16/2017,9:26,right,true,3078,2,1_2_1_1,word_1_word_2,far,rabbit,Clear_Before,preschool,hanna,2013-12-03,,English,,,,2,1,female
3lPVg,23,20,mal_plain,fem_sws,2,rabbit,jumper,rabbit,jumper,rabbit,mal_plain_fem_sws,critical,2/16/2017,9:26,right,false,1888,2,1_2_1_1,word_1_word_2,far,rabbit,Clear_Before,preschool,hanna,2013-12-03,,English,,,,2,1,female
3lPVg,23,20,mal_plain,fem_sws,3,rabbit,jumper,rabbit,jumper,rabbit,mal_plain_fem_sws,critical,2/16/2017,9:26,left,false,1745,1,1_2_1_1,word_1_word_2,far,jumper,Clear_Before,preschool,hanna,2013-12-03,,English,,,,2,1,female
3lPVg,24,3,mal_plain,fem_sws,1,trousers,nose,trousers,nose,trousers,mal_plain_fem_sws,critical,2/16/2017,9:26,left,false,2808,2,2_1_2_1,word_2_word_1,far,nose,Clear_Before,preschool,hanna,2013-12-03,,English,,,,2,1,female
3lPVg,24,3,mal_plain,fem_sws,2,trousers,nose,trousers,nose,trousers,mal_plain_fem_sws,critical,2/16/2017,9:26,right,false,1978,1,2_1_2_1,word_2_word_1,far,trousers,Clear_Before,preschool,hanna,2013-12-03,,English,,,,2,1,female
3lPVg,24,3,mal_plain,fem_sws,3,trousers,nose,trousers,nose,trousers,mal_plain_fem_sws,critical,2/16/2017,9:26,left,false,2570,1,2_1_2_1,word_2_word_1,far,nose,Clear_Before,preschool,hanna,2013-12-03,,English,,,,2,1,female
3lPVg,25,6,mal_plain,fem_sws,1,bird,peas,bird,peas,bird,mal_plain_fem_sws,critical,2/16/2017,9:26,right,true,2978,2,1_2_1_1,word_2_word_1,far,bird,Clear_Before,preschool,hanna,2013-12-03,,English,,,,2,1,female
3lPVg,25,6,mal_plain,fem_sws,2,bird,peas,bird,peas,bird,mal_plain_fem_sws,critical,2/16/2017,9:26,left,true,688,1,1_2_1_1,word_2_word_1,far,peas,Clear_Before,preschool,hanna,2013-12-03,,English,,,,2,1,female
3lPVg,25,6,mal_plain,fem_sws,3,bird,peas,bird,peas,bird,mal_plain_fem_sws,critical,2/16/2017,9:26,right,true,302,1,1_2_1_1,word_2_word_1,far,bird,Clear_Before,preschool,hanna,2013-12-03,,English,,,,2,1,female
