subject_id,trial_number,trial_id,plain,sws,instruction_number,sound1_item,sound2_item,sound3_item,left_image,right_image,sound_gender,trial_type,date_stamp,time_stamp,side_chosen,accuracy,rt,play_counter,order,pic_position,distance,chosen_pic,test_lang,testing_loc,tester,date_of_birth,ethnicity,native_lang,other_langs,parental_occ,dev_info,birth_order,num_siblings,gender
9nbXC,1,0,mal_plain,fem_sws,1,glasses,fireman,glasses,fireman,glasses,mal_plain_fem_sws,training,3/9/2017,14:01,right,true,8183,2,2_1_2_1,word_1_word_2,far,glasses,Clear_Before,preschool,hanna,2012-04-22,,English,,,,,,female
9nbXC,1,0,mal_plain,fem_sws,2,glasses,fireman,glasses,fireman,glasses,mal_plain_fem_sws,training,3/9/2017,14:01,left,true,3019,1,2_1_2_1,word_1_word_2,far,fireman,Clear_Before,preschool,hanna,2012-04-22,,English,,,,,,female
9nbXC,1,0,mal_plain,fem_sws,3,glasses,fireman,glasses,fireman,glasses,mal_plain_fem_sws,training,3/9/2017,14:01,right,true,8535,6,2_1_2_1,word_1_word_2,far,glasses,Clear_Before,preschool,hanna,2012-04-22,,English,,,,,,female
9nbXC,2,19,mal_plain,fem_sws,1,santa,building_blocks,santa,building_blocks,santa,mal_plain_fem_sws,critical,3/9/2017,14:01,right,true,3190,2,1_2_1_1,word_2_word_1,far,santa,Clear_Before,preschool,hanna,2012-04-22,,English,,,,,,female
9nbXC,2,19,mal_plain,fem_sws,2,santa,building_blocks,santa,building_blocks,santa,mal_plain_fem_sws,critical,3/9/2017,14:01,left,true,1927,1,1_2_1_1,word_2_word_1,far,building_blocks,Clear_Before,preschool,hanna,2012-04-22,,English,,,,,,female
9nbXC,2,19,mal_plain,fem_sws,3,santa,building_blocks,santa,building_blocks,santa,mal_plain_fem_sws,critical,3/9/2017,14:01,left,false,8014,2,1_2_1_1,word_2_word_1,far,building_blocks,Clear_Before,preschool,hanna,2012-04-22,,English,,,,,,female
9nbXC,3,1,mal_plain,fem_sws,1,baby,spoon,spoon,spoon,baby,mal_plain_fem_sws,critical,3/9/2017,14:01,right,true,2238,2,1_2_2_1,word_1_word_2,near,baby,Clear_Before,preschool,hanna,2012-04-22,,English,,,,,,female
9nbXC,3,1,mal_plain,fem_sws,2,baby,spoon,spoon,spoon,baby,mal_plain_fem_sws,critical,3/9/2017,14:01,left,true,1531,2,1_2_2_1,word_1_word_2,near,spoon,Clear_Before,preschool,hanna,2012-04-22,,English,,,,,,female
9nbXC,3,1,mal_plain,fem_sws,3,baby,spoon,spoon,spoon,baby,mal_plain_fem_sws,critical,3/9/2017,14:01,left,true,2826,2,1_2_2_1,word_1_word_2,near,spoon,Clear_Before,preschool,hanna,2012-04-22,,English,,,,,,female
9nbXC,4,12,mal_plain,fem_sws,1,yoghurt,foot,foot,yoghurt,foot,mal_plain_fem_sws,critical,3/9/2017,14:01,left,true,2447,2,1_2_2_1,word_2_word_1,near,yoghurt,Clear_Before,preschool,hanna,2012-04-22,,English,,,,,,female
9nbXC,4,12,mal_plain,fem_sws,2,yoghurt,foot,foot,yoghurt,foot,mal_plain_fem_sws,critical,3/9/2017,14:01,right,true,1731,1,1_2_2_1,word_2_word_1,near,foot,Clear_Before,preschool,hanna,2012-04-22,,English,,,,,,female
9nbXC,4,12,mal_plain,fem_sws,3,yoghurt,foot,foot,yoghurt,foot,mal_plain_fem_sws,critical,3/9/2017,14:01,right,true,5159,4,1_2_2_1,word_2_word_1,near,foot,Clear_Before,preschool,hanna,2012-04-22,,English,,,,,,female
9nbXC,5,3,mal_plain,fem_sws,1,nose,trousers,nose,nose,trousers,mal_plain_fem_sws,critical,3/9/2017,14:01,left,true,2635,2,2_1_2_1,word_2_word_1,far,nose,Clear_Before,preschool,hanna,2012-04-22,,English,,,,,,female
9nbXC,5,3,mal_plain,fem_sws,2,nose,trousers,nose,nose,trousers,mal_plain_fem_sws,critical,3/9/2017,14:01,right,true,2023,2,2_1_2_1,word_2_word_1,far,trousers,Clear_Before,preschool,hanna,2012-04-22,,English,,,,,,female
9nbXC,5,3,mal_plain,fem_sws,3,nose,trousers,nose,nose,trousers,mal_plain_fem_sws,critical,3/9/2017,14:01,left,true,4922,1,2_1_2_1,word_2_word_1,far,nose,Clear_Before,preschool,hanna,2012-04-22,,English,,,,,,female
9nbXC,6,2,mal_plain,fem_sws,1,bed,chicken,bed,chicken,bed,mal_plain_fem_sws,critical,3/9/2017,14:01,right,true,2674,2,1_2_1_1,word_2_word_1,far,bed,Clear_Before,preschool,hanna,2012-04-22,,English,,,,,,female
9nbXC,6,2,mal_plain,fem_sws,2,bed,chicken,bed,chicken,bed,mal_plain_fem_sws,critical,3/9/2017,14:01,left,true,2499,1,1_2_1_1,word_2_word_1,far,chicken,Clear_Before,preschool,hanna,2012-04-22,,English,,,,,,female
9nbXC,6,2,mal_plain,fem_sws,3,bed,chicken,bed,chicken,bed,mal_plain_fem_sws,critical,3/9/2017,14:01,right,true,5508,1,1_2_1_1,word_2_word_1,far,bed,Clear_Before,preschool,hanna,2012-04-22,,English,,,,,,female
9nbXC,7,14,mal_plain,fem_sws,1,shoes,cheese,cheese,shoes,cheese,mal_plain_fem_sws,critical,3/9/2017,14:01,left,true,2354,2,2_1_1_1,word_2_word_1,near,shoes,Clear_Before,preschool,hanna,2012-04-22,,English,,,,,,female
9nbXC,7,14,mal_plain,fem_sws,2,shoes,cheese,cheese,shoes,cheese,mal_plain_fem_sws,critical,3/9/2017,14:01,right,true,2431,1,2_1_1_1,word_2_word_1,near,cheese,Clear_Before,preschool,hanna,2012-04-22,,English,,,,,,female
9nbXC,7,14,mal_plain,fem_sws,3,shoes,cheese,cheese,shoes,cheese,mal_plain_fem_sws,critical,3/9/2017,14:01,right,true,2776,2,2_1_1_1,word_2_word_1,near,cheese,Clear_Before,preschool,hanna,2012-04-22,,English,,,,,,female
9nbXC,8,17,mal_plain,fem_sws,1,cake,ambulance,cake,ambulance,cake,mal_plain_fem_sws,critical,3/9/2017,14:01,right,true,1944,2,1_2_1_1,word_2_word_1,far,cake,Clear_Before,preschool,hanna,2012-04-22,,English,,,,,,female
9nbXC,8,17,mal_plain,fem_sws,2,cake,ambulance,cake,ambulance,cake,mal_plain_fem_sws,critical,3/9/2017,14:01,left,true,1947,2,1_2_1_1,word_2_word_1,far,ambulance,Clear_Before,preschool,hanna,2012-04-22,,English,,,,,,female
9nbXC,8,17,mal_plain,fem_sws,3,cake,ambulance,cake,ambulance,cake,mal_plain_fem_sws,critical,3/9/2017,14:01,right,true,2748,2,1_2_1_1,word_2_word_1,far,cake,Clear_Before,preschool,hanna,2012-04-22,,English,,,,,,female
9nbXC,9,4,mal_plain,fem_sws,1,strawberry,coat,coat,strawberry,coat,mal_plain_fem_sws,critical,3/9/2017,14:01,left,true,2433,2,1_2_2_1,word_2_word_1,near,strawberry,Clear_Before,preschool,hanna,2012-04-22,,English,,,,,,female
9nbXC,9,4,mal_plain,fem_sws,2,strawberry,coat,coat,strawberry,coat,mal_plain_fem_sws,critical,3/9/2017,14:01,right,true,2960,2,1_2_2_1,word_2_word_1,near,coat,Clear_Before,preschool,hanna,2012-04-22,,English,,,,,,female
9nbXC,9,4,mal_plain,fem_sws,3,strawberry,coat,coat,strawberry,coat,mal_plain_fem_sws,critical,3/9/2017,14:01,right,true,2517,1,1_2_2_1,word_2_word_1,near,coat,Clear_Before,preschool,hanna,2012-04-22,,English,,,,,,female
9nbXC,10,21,mal_plain,fem_sws,1,frog,sheep,frog,sheep,frog,mal_plain_fem_sws,critical,3/9/2017,14:01,right,true,2864,2,1_2_1_1,word_2_word_1,far,frog,Clear_Before,preschool,hanna,2012-04-22,,English,,,,,,female
9nbXC,10,21,mal_plain,fem_sws,2,frog,sheep,frog,sheep,frog,mal_plain_fem_sws,critical,3/9/2017,14:01,left,true,2149,1,1_2_1_1,word_2_word_1,far,sheep,Clear_Before,preschool,hanna,2012-04-22,,English,,,,,,female
9nbXC,10,21,mal_plain,fem_sws,3,frog,sheep,frog,sheep,frog,mal_plain_fem_sws,critical,3/9/2017,14:01,right,true,3112,1,1_2_1_1,word_2_word_1,far,frog,Clear_Before,preschool,hanna,2012-04-22,,English,,,,,,female
9nbXC,11,11,mal_plain,fem_sws,1,book,lorry,book,book,lorry,mal_plain_fem_sws,critical,3/9/2017,14:01,left,true,2194,2,2_1_2_1,word_1_word_2,far,book,Clear_Before,preschool,hanna,2012-04-22,,English,,,,,,female
9nbXC,11,11,mal_plain,fem_sws,2,book,lorry,book,book,lorry,mal_plain_fem_sws,critical,3/9/2017,14:01,right,true,1826,1,2_1_2_1,word_1_word_2,far,lorry,Clear_Before,preschool,hanna,2012-04-22,,English,,,,,,female
9nbXC,11,11,mal_plain,fem_sws,3,book,lorry,book,book,lorry,mal_plain_fem_sws,critical,3/9/2017,14:01,left,true,2794,4,2_1_2_1,word_1_word_2,far,book,Clear_Before,preschool,hanna,2012-04-22,,English,,,,,,female
9nbXC,12,23,mal_plain,fem_sws,1,bath,teddy_bear,teddy_bear,bath,teddy_bear,mal_plain_fem_sws,critical,3/9/2017,14:01,left,true,2940,2,1_2_2_1,word_1_word_2,near,bath,Clear_Before,preschool,hanna,2012-04-22,,English,,,,,,female
9nbXC,12,23,mal_plain,fem_sws,2,bath,teddy_bear,teddy_bear,bath,teddy_bear,mal_plain_fem_sws,critical,3/9/2017,14:01,right,true,2122,1,1_2_2_1,word_1_word_2,near,teddy_bear,Clear_Before,preschool,hanna,2012-04-22,,English,,,,,,female
9nbXC,12,23,mal_plain,fem_sws,3,bath,teddy_bear,teddy_bear,bath,teddy_bear,mal_plain_fem_sws,critical,3/9/2017,14:01,right,true,2444,1,1_2_2_1,word_1_word_2,near,teddy_bear,Clear_Before,preschool,hanna,2012-04-22,,English,,,,,,female
9nbXC,13,22,mal_plain,fem_sws,1,dog,bike,dog,bike,dog,mal_plain_fem_sws,critical,3/9/2017,14:01,right,true,1976,2,1_2_1_1,word_1_word_2,far,dog,Clear_Before,preschool,hanna,2012-04-22,,English,,,,,,female
9nbXC,13,22,mal_plain,fem_sws,2,dog,bike,dog,bike,dog,mal_plain_fem_sws,critical,3/9/2017,14:01,left,true,2179,1,1_2_1_1,word_1_word_2,far,bike,Clear_Before,preschool,hanna,2012-04-22,,English,,,,,,female
9nbXC,13,22,mal_plain,fem_sws,3,dog,bike,dog,bike,dog,mal_plain_fem_sws,critical,3/9/2017,14:01,right,true,2484,1,1_2_1_1,word_1_word_2,far,dog,Clear_Before,preschool,hanna,2012-04-22,,English,,,,,,female
9nbXC,14,5,mal_plain,fem_sws,1,orange,car,car,orange,car,mal_plain_fem_sws,critical,3/9/2017,14:01,left,true,3211,2,2_1_1_1,word_1_word_2,near,orange,Clear_Before,preschool,hanna,2012-04-22,,English,,,,,,female
9nbXC,14,5,mal_plain,fem_sws,2,orange,car,car,orange,car,mal_plain_fem_sws,critical,3/9/2017,14:01,right,true,1293,2,2_1_1_1,word_1_word_2,near,car,Clear_Before,preschool,hanna,2012-04-22,,English,,,,,,female
9nbXC,14,5,mal_plain,fem_sws,3,orange,car,car,orange,car,mal_plain_fem_sws,critical,3/9/2017,14:01,right,true,2271,2,2_1_1_1,word_1_word_2,near,car,Clear_Before,preschool,hanna,2012-04-22,,English,,,,,,female
9nbXC,15,7,mal_plain,fem_sws,1,horse,lolly,horse,lolly,horse,mal_plain_fem_sws,critical,3/9/2017,14:01,right,true,3037,2,2_1_2_1,word_1_word_2,far,horse,Clear_Before,preschool,hanna,2012-04-22,,English,,,,,,female
9nbXC,15,7,mal_plain,fem_sws,2,horse,lolly,horse,lolly,horse,mal_plain_fem_sws,critical,3/9/2017,14:01,left,true,2289,2,2_1_2_1,word_1_word_2,far,lolly,Clear_Before,preschool,hanna,2012-04-22,,English,,,,,,female
9nbXC,15,7,mal_plain,fem_sws,3,horse,lolly,horse,lolly,horse,mal_plain_fem_sws,critical,3/9/2017,14:01,right,true,2986,1,2_1_2_1,word_1_word_2,far,horse,Clear_Before,preschool,hanna,2012-04-22,,English,,,,,,female
9nbXC,16,20,mal_plain,fem_sws,1,jumper,rabbit,rabbit,rabbit,jumper,mal_plain_fem_sws,critical,3/9/2017,14:01,right,true,2435,2,1_2_2_1,word_2_word_1,near,jumper,Clear_Before,preschool,hanna,2012-04-22,,English,,,,,,female
9nbXC,16,20,mal_plain,fem_sws,2,jumper,rabbit,rabbit,rabbit,jumper,mal_plain_fem_sws,critical,3/9/2017,14:01,left,true,872,1,1_2_2_1,word_2_word_1,near,rabbit,Clear_Before,preschool,hanna,2012-04-22,,English,,,,,,female
9nbXC,16,20,mal_plain,fem_sws,3,jumper,rabbit,rabbit,rabbit,jumper,mal_plain_fem_sws,critical,3/9/2017,14:01,left,true,2660,2,1_2_2_1,word_2_word_1,near,rabbit,Clear_Before,preschool,hanna,2012-04-22,,English,,,,,,female
9nbXC,17,16,mal_plain,fem_sws,1,paintbrush,banana,banana,paintbrush,banana,mal_plain_fem_sws,critical,3/9/2017,14:01,left,true,3368,2,1_2_2_1,word_1_word_2,near,paintbrush,Clear_Before,preschool,hanna,2012-04-22,,English,,,,,,female
9nbXC,17,16,mal_plain,fem_sws,2,paintbrush,banana,banana,paintbrush,banana,mal_plain_fem_sws,critical,3/9/2017,14:01,right,true,1770,2,1_2_2_1,word_1_word_2,near,banana,Clear_Before,preschool,hanna,2012-04-22,,English,,,,,,female
9nbXC,17,16,mal_plain,fem_sws,3,paintbrush,banana,banana,paintbrush,banana,mal_plain_fem_sws,critical,3/9/2017,14:01,right,true,2194,4,1_2_2_1,word_1_word_2,near,banana,Clear_Before,preschool,hanna,2012-04-22,,English,,,,,,female
9nbXC,18,15,mal_plain,fem_sws,1,pencil,slide,pencil,slide,pencil,mal_plain_fem_sws,critical,3/9/2017,14:01,right,true,2780,2,2_1_2_1,word_1_word_2,far,pencil,Clear_Before,preschool,hanna,2012-04-22,,English,,,,,,female
9nbXC,18,15,mal_plain,fem_sws,2,pencil,slide,pencil,slide,pencil,mal_plain_fem_sws,critical,3/9/2017,14:01,right,false,2184,2,2_1_2_1,word_1_word_2,far,pencil,Clear_Before,preschool,hanna,2012-04-22,,English,,,,,,female
9nbXC,18,15,mal_plain,fem_sws,3,pencil,slide,pencil,slide,pencil,mal_plain_fem_sws,critical,3/9/2017,14:01,left,false,2212,1,2_1_2_1,word_1_word_2,far,slide,Clear_Before,preschool,hanna,2012-04-22,,English,,,,,,female
9nbXC,19,6,mal_plain,fem_sws,1,peas,bird,peas,peas,bird,mal_plain_fem_sws,critical,3/9/2017,14:01,left,true,3351,2,1_2_1_1,word_2_word_1,far,peas,Clear_Before,preschool,hanna,2012-04-22,,English,,,,,,female
9nbXC,19,6,mal_plain,fem_sws,2,peas,bird,peas,peas,bird,mal_plain_fem_sws,critical,3/9/2017,14:01,right,true,1939,1,1_2_1_1,word_2_word_1,far,bird,Clear_Before,preschool,hanna,2012-04-22,,English,,,,,,female
9nbXC,19,6,mal_plain,fem_sws,3,peas,bird,peas,peas,bird,mal_plain_fem_sws,critical,3/9/2017,14:01,right,false,2116,1,1_2_1_1,word_2_word_1,far,bird,Clear_Before,preschool,hanna,2012-04-22,,English,,,,,,female
9nbXC,20,18,mal_plain,fem_sws,1,ball,raspberry,ball,ball,raspberry,mal_plain_fem_sws,critical,3/9/2017,14:01,left,true,2728,2,2_1_2_1,word_1_word_2,far,ball,Clear_Before,preschool,hanna,2012-04-22,,English,,,,,,female
9nbXC,20,18,mal_plain,fem_sws,2,ball,raspberry,ball,ball,raspberry,mal_plain_fem_sws,critical,3/9/2017,14:01,left,false,2716,1,2_1_2_1,word_1_word_2,far,ball,Clear_Before,preschool,hanna,2012-04-22,,English,,,,,,female
9nbXC,20,18,mal_plain,fem_sws,3,ball,raspberry,ball,ball,raspberry,mal_plain_fem_sws,critical,3/9/2017,14:01,right,false,3124,1,2_1_2_1,word_1_word_2,far,raspberry,Clear_Before,preschool,hanna,2012-04-22,,English,,,,,,female
9nbXC,21,24,mal_plain,fem_sws,1,fish,sink,sink,sink,fish,mal_plain_fem_sws,critical,3/9/2017,14:01,left,false,3739,2,2_1_1_1,word_1_word_2,near,sink,Clear_Before,preschool,hanna,2012-04-22,,English,,,,,,female
9nbXC,21,24,mal_plain,fem_sws,2,fish,sink,sink,sink,fish,mal_plain_fem_sws,critical,3/9/2017,14:01,right,false,2086,2,2_1_1_1,word_1_word_2,near,fish,Clear_Before,preschool,hanna,2012-04-22,,English,,,,,,female
9nbXC,21,24,mal_plain,fem_sws,3,fish,sink,sink,sink,fish,mal_plain_fem_sws,critical,3/9/2017,14:01,left,true,2614,2,2_1_1_1,word_1_word_2,near,sink,Clear_Before,preschool,hanna,2012-04-22,,English,,,,,,female
9nbXC,22,13,mal_plain,fem_sws,1,toothbrush,airplane,airplane,toothbrush,airplane,mal_plain_fem_sws,critical,3/9/2017,14:01,right,false,2450,4,2_1_1_1,word_1_word_2,near,airplane,Clear_Before,preschool,hanna,2012-04-22,,English,,,,,,female
9nbXC,22,13,mal_plain,fem_sws,2,toothbrush,airplane,airplane,toothbrush,airplane,mal_plain_fem_sws,critical,3/9/2017,14:01,left,false,1904,1,2_1_1_1,word_1_word_2,near,toothbrush,Clear_Before,preschool,hanna,2012-04-22,,English,,,,,,female
9nbXC,22,13,mal_plain,fem_sws,3,toothbrush,airplane,airplane,toothbrush,airplane,mal_plain_fem_sws,critical,3/9/2017,14:01,right,true,2099,1,2_1_1_1,word_1_word_2,near,airplane,Clear_Before,preschool,hanna,2012-04-22,,English,,,,,,female
9nbXC,23,9,mal_plain,fem_sws,1,window,pizza,pizza,window,pizza,mal_plain_fem_sws,critical,3/9/2017,14:01,right,false,2742,3,2_1_1_1,word_2_word_1,near,pizza,Clear_Before,preschool,hanna,2012-04-22,,English,,,,,,female
9nbXC,23,9,mal_plain,fem_sws,2,window,pizza,pizza,window,pizza,mal_plain_fem_sws,critical,3/9/2017,14:01,left,false,1780,2,2_1_1_1,word_2_word_1,near,window,Clear_Before,preschool,hanna,2012-04-22,,English,,,,,,female
9nbXC,23,9,mal_plain,fem_sws,3,window,pizza,pizza,window,pizza,mal_plain_fem_sws,critical,3/9/2017,14:01,right,true,2020,1,2_1_1_1,word_2_word_1,near,pizza,Clear_Before,preschool,hanna,2012-04-22,,English,,,,,,female
9nbXC,24,8,mal_plain,fem_sws,1,wellyboots,fire_engine,fire_engine,fire_engine,wellyboots,mal_plain_fem_sws,critical,3/9/2017,14:01,left,false,3310,2,2_1_1_1,word_2_word_1,near,fire_engine,Clear_Before,preschool,hanna,2012-04-22,,English,,,,,,female
9nbXC,24,8,mal_plain,fem_sws,2,wellyboots,fire_engine,fire_engine,fire_engine,wellyboots,mal_plain_fem_sws,critical,3/9/2017,14:01,right,false,1336,2,2_1_1_1,word_2_word_1,near,wellyboots,Clear_Before,preschool,hanna,2012-04-22,,English,,,,,,female
9nbXC,24,8,mal_plain,fem_sws,3,wellyboots,fire_engine,fire_engine,fire_engine,wellyboots,mal_plain_fem_sws,critical,3/9/2017,14:01,left,true,2583,2,2_1_1_1,word_2_word_1,near,fire_engine,Clear_Before,preschool,hanna,2012-04-22,,English,,,,,,female
9nbXC,25,10,mal_plain,fem_sws,1,tshirt,pig,tshirt,tshirt,pig,mal_plain_fem_sws,critical,3/9/2017,14:01,left,true,4468,2,1_2_1_1,word_2_word_1,far,tshirt,Clear_Before,preschool,hanna,2012-04-22,,English,,,,,,female
9nbXC,25,10,mal_plain,fem_sws,2,tshirt,pig,tshirt,tshirt,pig,mal_plain_fem_sws,critical,3/9/2017,14:01,left,false,2896,1,1_2_1_1,word_2_word_1,far,tshirt,Clear_Before,preschool,hanna,2012-04-22,,English,,,,,,female
9nbXC,25,10,mal_plain,fem_sws,3,tshirt,pig,tshirt,tshirt,pig,mal_plain_fem_sws,critical,3/9/2017,14:01,right,false,2385,2,1_2_1_1,word_2_word_1,far,pig,Clear_Before,preschool,hanna,2012-04-22,,English,,,,,,female
