subject_id,trial_number,trial_id,plain,sws,instruction_number,sound1_item,sound2_item,sound3_item,left_image,right_image,sound_gender,trial_type,date_stamp,time_stamp,side_chosen,accuracy,rt,play_counter,order,pic_position,distance,chosen_pic,test_lang,testing_loc,tester,date_of_birth,ethnicity,native_lang,other_langs,parental_occ,dev_info,birth_order,num_siblings,gender
b4mPN,1,0,fem_plain,fem_sws,1,glasses,fireman,glasses,glasses,fireman,fem_plain_fem_sws,training,2/16/2017,10:15,left,true,3686,4,1_2_1_1,word_2_word_1,far,glasses,Clear_Before,preschool,hanna,2012-03-16,,Estonian,English,,,2,1,male
b4mPN,1,0,fem_plain,fem_sws,2,glasses,fireman,glasses,glasses,fireman,fem_plain_fem_sws,training,2/16/2017,10:15,right,true,2217,2,1_2_1_1,word_2_word_1,far,fireman,Clear_Before,preschool,hanna,2012-03-16,,Estonian,English,,,2,1,male
b4mPN,1,0,fem_plain,fem_sws,3,glasses,fireman,glasses,glasses,fireman,fem_plain_fem_sws,training,2/16/2017,10:15,left,true,4582,6,1_2_1_1,word_2_word_1,far,glasses,Clear_Before,preschool,hanna,2012-03-16,,Estonian,English,,,2,1,male
b4mPN,2,21,fem_plain,fem_sws,1,sheep,frog,frog,sheep,frog,fem_plain_fem_sws,critical,2/16/2017,10:15,left,true,2521,2,1_2_2_1,word_2_word_1,near,sheep,Clear_Before,preschool,hanna,2012-03-16,,Estonian,English,,,2,1,male
b4mPN,2,21,fem_plain,fem_sws,2,sheep,frog,frog,sheep,frog,fem_plain_fem_sws,critical,2/16/2017,10:15,right,true,2685,2,1_2_2_1,word_2_word_1,near,frog,Clear_Before,preschool,hanna,2012-03-16,,Estonian,English,,,2,1,male
b4mPN,2,21,fem_plain,fem_sws,3,sheep,frog,frog,sheep,frog,fem_plain_fem_sws,critical,2/16/2017,10:15,right,true,4509,2,1_2_2_1,word_2_word_1,near,frog,Clear_Before,preschool,hanna,2012-03-16,,Estonian,English,,,2,1,male
b4mPN,3,20,fem_plain,fem_sws,1,rabbit,jumper,rabbit,rabbit,jumper,fem_plain_fem_sws,critical,2/16/2017,10:15,left,true,2449,2,2_1_2_1,word_2_word_1,far,rabbit,Clear_Before,preschool,hanna,2012-03-16,,Estonian,English,,,2,1,male
b4mPN,3,20,fem_plain,fem_sws,2,rabbit,jumper,rabbit,rabbit,jumper,fem_plain_fem_sws,critical,2/16/2017,10:15,right,true,2509,2,2_1_2_1,word_2_word_1,far,jumper,Clear_Before,preschool,hanna,2012-03-16,,Estonian,English,,,2,1,male
b4mPN,3,20,fem_plain,fem_sws,3,rabbit,jumper,rabbit,rabbit,jumper,fem_plain_fem_sws,critical,2/16/2017,10:15,left,true,2919,1,2_1_2_1,word_2_word_1,far,rabbit,Clear_Before,preschool,hanna,2012-03-16,,Estonian,English,,,2,1,male
b4mPN,4,6,fem_plain,fem_sws,1,peas,bird,bird,bird,peas,fem_plain_fem_sws,critical,2/16/2017,10:15,right,true,3079,2,2_1_1_1,word_1_word_2,near,peas,Clear_Before,preschool,hanna,2012-03-16,,Estonian,English,,,2,1,male
b4mPN,4,6,fem_plain,fem_sws,2,peas,bird,bird,bird,peas,fem_plain_fem_sws,critical,2/16/2017,10:15,left,true,2895,1,2_1_1_1,word_1_word_2,near,bird,Clear_Before,preschool,hanna,2012-03-16,,Estonian,English,,,2,1,male
b4mPN,4,6,fem_plain,fem_sws,3,peas,bird,bird,bird,peas,fem_plain_fem_sws,critical,2/16/2017,10:15,left,true,4181,2,2_1_1_1,word_1_word_2,near,bird,Clear_Before,preschool,hanna,2012-03-16,,Estonian,English,,,2,1,male
b4mPN,5,17,fem_plain,fem_sws,1,ambulance,cake,cake,ambulance,cake,fem_plain_fem_sws,critical,2/16/2017,10:15,left,true,2777,2,2_1_1_1,word_2_word_1,near,ambulance,Clear_Before,preschool,hanna,2012-03-16,,Estonian,English,,,2,1,male
b4mPN,5,17,fem_plain,fem_sws,2,ambulance,cake,cake,ambulance,cake,fem_plain_fem_sws,critical,2/16/2017,10:15,right,true,2818,1,2_1_1_1,word_2_word_1,near,cake,Clear_Before,preschool,hanna,2012-03-16,,Estonian,English,,,2,1,male
b4mPN,5,17,fem_plain,fem_sws,3,ambulance,cake,cake,ambulance,cake,fem_plain_fem_sws,critical,2/16/2017,10:15,right,true,3212,1,2_1_1_1,word_2_word_1,near,cake,Clear_Before,preschool,hanna,2012-03-16,,Estonian,English,,,2,1,male
b4mPN,6,14,fem_plain,fem_sws,1,cheese,shoes,shoes,cheese,shoes,fem_plain_fem_sws,critical,2/16/2017,10:15,left,true,2673,2,1_2_2_1,word_1_word_2,near,cheese,Clear_Before,preschool,hanna,2012-03-16,,Estonian,English,,,2,1,male
b4mPN,6,14,fem_plain,fem_sws,2,cheese,shoes,shoes,cheese,shoes,fem_plain_fem_sws,critical,2/16/2017,10:15,right,true,2376,1,1_2_2_1,word_1_word_2,near,shoes,Clear_Before,preschool,hanna,2012-03-16,,Estonian,English,,,2,1,male
b4mPN,6,14,fem_plain,fem_sws,3,cheese,shoes,shoes,cheese,shoes,fem_plain_fem_sws,critical,2/16/2017,10:15,right,true,3076,2,1_2_2_1,word_1_word_2,near,shoes,Clear_Before,preschool,hanna,2012-03-16,,Estonian,English,,,2,1,male
b4mPN,7,2,fem_plain,fem_sws,1,bed,chicken,bed,chicken,bed,fem_plain_fem_sws,critical,2/16/2017,10:15,right,true,4096,4,2_1_2_1,word_2_word_1,far,bed,Clear_Before,preschool,hanna,2012-03-16,,Estonian,English,,,2,1,male
b4mPN,7,2,fem_plain,fem_sws,2,bed,chicken,bed,chicken,bed,fem_plain_fem_sws,critical,2/16/2017,10:15,left,true,3040,1,2_1_2_1,word_2_word_1,far,chicken,Clear_Before,preschool,hanna,2012-03-16,,Estonian,English,,,2,1,male
b4mPN,7,2,fem_plain,fem_sws,3,bed,chicken,bed,chicken,bed,fem_plain_fem_sws,critical,2/16/2017,10:15,right,true,4899,4,2_1_2_1,word_2_word_1,far,bed,Clear_Before,preschool,hanna,2012-03-16,,Estonian,English,,,2,1,male
b4mPN,8,3,fem_plain,fem_sws,1,trousers,nose,nose,nose,trousers,fem_plain_fem_sws,critical,2/16/2017,10:15,right,true,2950,2,2_1_1_1,word_2_word_1,near,trousers,Clear_Before,preschool,hanna,2012-03-16,,Estonian,English,,,2,1,male
b4mPN,8,3,fem_plain,fem_sws,2,trousers,nose,nose,nose,trousers,fem_plain_fem_sws,critical,2/16/2017,10:15,left,true,2716,1,2_1_1_1,word_2_word_1,near,nose,Clear_Before,preschool,hanna,2012-03-16,,Estonian,English,,,2,1,male
b4mPN,8,3,fem_plain,fem_sws,3,trousers,nose,nose,nose,trousers,fem_plain_fem_sws,critical,2/16/2017,10:15,left,true,2637,1,2_1_1_1,word_2_word_1,near,nose,Clear_Before,preschool,hanna,2012-03-16,,Estonian,English,,,2,1,male
b4mPN,9,11,fem_plain,fem_sws,1,book,lorry,book,book,lorry,fem_plain_fem_sws,critical,2/16/2017,10:15,left,true,4099,2,2_1_2_1,word_1_word_2,far,book,Clear_Before,preschool,hanna,2012-03-16,,Estonian,English,,,2,1,male
b4mPN,9,11,fem_plain,fem_sws,2,book,lorry,book,book,lorry,fem_plain_fem_sws,critical,2/16/2017,10:15,right,true,2552,2,2_1_2_1,word_1_word_2,far,lorry,Clear_Before,preschool,hanna,2012-03-16,,Estonian,English,,,2,1,male
b4mPN,9,11,fem_plain,fem_sws,3,book,lorry,book,book,lorry,fem_plain_fem_sws,critical,2/16/2017,10:15,left,true,4342,1,2_1_2_1,word_1_word_2,far,book,Clear_Before,preschool,hanna,2012-03-16,,Estonian,English,,,2,1,male
b4mPN,10,16,fem_plain,fem_sws,1,banana,paintbrush,banana,banana,paintbrush,fem_plain_fem_sws,critical,2/16/2017,10:15,left,true,2411,4,2_1_2_1,word_2_word_1,far,banana,Clear_Before,preschool,hanna,2012-03-16,,Estonian,English,,,2,1,male
b4mPN,10,16,fem_plain,fem_sws,2,banana,paintbrush,banana,banana,paintbrush,fem_plain_fem_sws,critical,2/16/2017,10:15,right,true,2012,1,2_1_2_1,word_2_word_1,far,paintbrush,Clear_Before,preschool,hanna,2012-03-16,,Estonian,English,,,2,1,male
b4mPN,10,16,fem_plain,fem_sws,3,banana,paintbrush,banana,banana,paintbrush,fem_plain_fem_sws,critical,2/16/2017,10:15,left,true,3082,2,2_1_2_1,word_2_word_1,far,banana,Clear_Before,preschool,hanna,2012-03-16,,Estonian,English,,,2,1,male
b4mPN,11,5,fem_plain,fem_sws,1,orange,car,orange,car,orange,fem_plain_fem_sws,critical,2/16/2017,10:15,right,true,3113,2,1_2_1_1,word_2_word_1,far,orange,Clear_Before,preschool,hanna,2012-03-16,,Estonian,English,,,2,1,male
b4mPN,11,5,fem_plain,fem_sws,2,orange,car,orange,car,orange,fem_plain_fem_sws,critical,2/16/2017,10:15,left,true,2082,2,1_2_1_1,word_2_word_1,far,car,Clear_Before,preschool,hanna,2012-03-16,,Estonian,English,,,2,1,male
b4mPN,11,5,fem_plain,fem_sws,3,orange,car,orange,car,orange,fem_plain_fem_sws,critical,2/16/2017,10:15,right,true,3575,1,1_2_1_1,word_2_word_1,far,orange,Clear_Before,preschool,hanna,2012-03-16,,Estonian,English,,,2,1,male
b4mPN,12,24,fem_plain,fem_sws,1,fish,sink,sink,fish,sink,fem_plain_fem_sws,critical,2/16/2017,10:15,left,true,2618,2,2_1_1_1,word_2_word_1,near,fish,Clear_Before,preschool,hanna,2012-03-16,,Estonian,English,,,2,1,male
b4mPN,12,24,fem_plain,fem_sws,2,fish,sink,sink,fish,sink,fem_plain_fem_sws,critical,2/16/2017,10:15,right,true,2645,1,2_1_1_1,word_2_word_1,near,sink,Clear_Before,preschool,hanna,2012-03-16,,Estonian,English,,,2,1,male
b4mPN,12,24,fem_plain,fem_sws,3,fish,sink,sink,fish,sink,fem_plain_fem_sws,critical,2/16/2017,10:15,right,true,2910,1,2_1_1_1,word_2_word_1,near,sink,Clear_Before,preschool,hanna,2012-03-16,,Estonian,English,,,2,1,male
b4mPN,13,10,fem_plain,fem_sws,1,pig,tshirt,pig,tshirt,pig,fem_plain_fem_sws,critical,2/16/2017,10:15,right,true,2388,2,2_1_2_1,word_2_word_1,far,pig,Clear_Before,preschool,hanna,2012-03-16,,Estonian,English,,,2,1,male
b4mPN,13,10,fem_plain,fem_sws,2,pig,tshirt,pig,tshirt,pig,fem_plain_fem_sws,critical,2/16/2017,10:15,left,true,2851,1,2_1_2_1,word_2_word_1,far,tshirt,Clear_Before,preschool,hanna,2012-03-16,,Estonian,English,,,2,1,male
b4mPN,13,10,fem_plain,fem_sws,3,pig,tshirt,pig,tshirt,pig,fem_plain_fem_sws,critical,2/16/2017,10:15,right,true,2715,1,2_1_2_1,word_2_word_1,far,pig,Clear_Before,preschool,hanna,2012-03-16,,Estonian,English,,,2,1,male
b4mPN,14,18,fem_plain,fem_sws,1,raspberry,ball,ball,ball,raspberry,fem_plain_fem_sws,critical,2/16/2017,10:15,right,true,3379,1,1_2_2_1,word_1_word_2,near,raspberry,Clear_Before,preschool,hanna,2012-03-16,,Estonian,English,,,2,1,male
b4mPN,14,18,fem_plain,fem_sws,2,raspberry,ball,ball,ball,raspberry,fem_plain_fem_sws,critical,2/16/2017,10:15,left,true,2546,1,1_2_2_1,word_1_word_2,near,ball,Clear_Before,preschool,hanna,2012-03-16,,Estonian,English,,,2,1,male
b4mPN,14,18,fem_plain,fem_sws,3,raspberry,ball,ball,ball,raspberry,fem_plain_fem_sws,critical,2/16/2017,10:15,left,true,3219,4,1_2_2_1,word_1_word_2,near,ball,Clear_Before,preschool,hanna,2012-03-16,,Estonian,English,,,2,1,male
b4mPN,15,12,fem_plain,fem_sws,1,yoghurt,foot,yoghurt,foot,yoghurt,fem_plain_fem_sws,critical,2/16/2017,10:15,right,true,2710,2,1_2_1_1,word_1_word_2,far,yoghurt,Clear_Before,preschool,hanna,2012-03-16,,Estonian,English,,,2,1,male
b4mPN,15,12,fem_plain,fem_sws,2,yoghurt,foot,yoghurt,foot,yoghurt,fem_plain_fem_sws,critical,2/16/2017,10:15,left,true,1863,1,1_2_1_1,word_1_word_2,far,foot,Clear_Before,preschool,hanna,2012-03-16,,Estonian,English,,,2,1,male
b4mPN,15,12,fem_plain,fem_sws,3,yoghurt,foot,yoghurt,foot,yoghurt,fem_plain_fem_sws,critical,2/16/2017,10:15,left,false,2741,1,1_2_1_1,word_1_word_2,far,foot,Clear_Before,preschool,hanna,2012-03-16,,Estonian,English,,,2,1,male
b4mPN,16,23,fem_plain,fem_sws,1,bath,teddy_bear,bath,teddy_bear,bath,fem_plain_fem_sws,critical,2/16/2017,10:15,right,true,3368,2,1_2_1_1,word_2_word_1,far,bath,Clear_Before,preschool,hanna,2012-03-16,,Estonian,English,,,2,1,male
b4mPN,16,23,fem_plain,fem_sws,2,bath,teddy_bear,bath,teddy_bear,bath,fem_plain_fem_sws,critical,2/16/2017,10:15,left,true,2148,1,1_2_1_1,word_2_word_1,far,teddy_bear,Clear_Before,preschool,hanna,2012-03-16,,Estonian,English,,,2,1,male
b4mPN,16,23,fem_plain,fem_sws,3,bath,teddy_bear,bath,teddy_bear,bath,fem_plain_fem_sws,critical,2/16/2017,10:15,right,true,3171,1,1_2_1_1,word_2_word_1,far,bath,Clear_Before,preschool,hanna,2012-03-16,,Estonian,English,,,2,1,male
b4mPN,17,1,fem_plain,fem_sws,1,baby,spoon,baby,baby,spoon,fem_plain_fem_sws,critical,2/16/2017,10:15,left,true,2484,4,1_2_1_1,word_2_word_1,far,baby,Clear_Before,preschool,hanna,2012-03-16,,Estonian,English,,,2,1,male
b4mPN,17,1,fem_plain,fem_sws,2,baby,spoon,baby,baby,spoon,fem_plain_fem_sws,critical,2/16/2017,10:15,right,true,1782,1,1_2_1_1,word_2_word_1,far,spoon,Clear_Before,preschool,hanna,2012-03-16,,Estonian,English,,,2,1,male
b4mPN,17,1,fem_plain,fem_sws,3,baby,spoon,baby,baby,spoon,fem_plain_fem_sws,critical,2/16/2017,10:15,left,true,2919,1,1_2_1_1,word_2_word_1,far,baby,Clear_Before,preschool,hanna,2012-03-16,,Estonian,English,,,2,1,male
b4mPN,18,4,fem_plain,fem_sws,1,strawberry,coat,strawberry,coat,strawberry,fem_plain_fem_sws,critical,2/16/2017,10:15,right,true,2708,2,2_1_2_1,word_1_word_2,far,strawberry,Clear_Before,preschool,hanna,2012-03-16,,Estonian,English,,,2,1,male
b4mPN,18,4,fem_plain,fem_sws,2,strawberry,coat,strawberry,coat,strawberry,fem_plain_fem_sws,critical,2/16/2017,10:15,right,false,3081,2,2_1_2_1,word_1_word_2,far,strawberry,Clear_Before,preschool,hanna,2012-03-16,,Estonian,English,,,2,1,male
b4mPN,18,4,fem_plain,fem_sws,3,strawberry,coat,strawberry,coat,strawberry,fem_plain_fem_sws,critical,2/16/2017,10:15,left,false,2432,1,2_1_2_1,word_1_word_2,far,coat,Clear_Before,preschool,hanna,2012-03-16,,Estonian,English,,,2,1,male
b4mPN,19,19,fem_plain,fem_sws,1,building_blocks,santa,building_blocks,building_blocks,santa,fem_plain_fem_sws,critical,2/16/2017,10:15,left,true,2876,2,1_2_1_1,word_2_word_1,far,building_blocks,Clear_Before,preschool,hanna,2012-03-16,,Estonian,English,,,2,1,male
b4mPN,19,19,fem_plain,fem_sws,2,building_blocks,santa,building_blocks,building_blocks,santa,fem_plain_fem_sws,critical,2/16/2017,10:15,left,false,2494,1,1_2_1_1,word_2_word_1,far,building_blocks,Clear_Before,preschool,hanna,2012-03-16,,Estonian,English,,,2,1,male
b4mPN,19,19,fem_plain,fem_sws,3,building_blocks,santa,building_blocks,building_blocks,santa,fem_plain_fem_sws,critical,2/16/2017,10:15,right,false,3232,2,1_2_1_1,word_2_word_1,far,santa,Clear_Before,preschool,hanna,2012-03-16,,Estonian,English,,,2,1,male
b4mPN,20,7,fem_plain,fem_sws,1,lolly,horse,horse,lolly,horse,fem_plain_fem_sws,critical,2/16/2017,10:15,right,false,3632,2,1_2_2_1,word_1_word_2,near,horse,Clear_Before,preschool,hanna,2012-03-16,,Estonian,English,,,2,1,male
b4mPN,20,7,fem_plain,fem_sws,2,lolly,horse,horse,lolly,horse,fem_plain_fem_sws,critical,2/16/2017,10:15,left,false,3681,2,1_2_2_1,word_1_word_2,near,lolly,Clear_Before,preschool,hanna,2012-03-16,,Estonian,English,,,2,1,male
b4mPN,20,7,fem_plain,fem_sws,3,lolly,horse,horse,lolly,horse,fem_plain_fem_sws,critical,2/16/2017,10:15,right,true,2274,2,1_2_2_1,word_1_word_2,near,horse,Clear_Before,preschool,hanna,2012-03-16,,Estonian,English,,,2,1,male
b4mPN,21,8,fem_plain,fem_sws,1,fire_engine,wellyboots,wellyboots,fire_engine,wellyboots,fem_plain_fem_sws,critical,2/16/2017,10:15,right,false,3085,2,2_1_1_1,word_2_word_1,near,wellyboots,Clear_Before,preschool,hanna,2012-03-16,,Estonian,English,,,2,1,male
b4mPN,21,8,fem_plain,fem_sws,2,fire_engine,wellyboots,wellyboots,fire_engine,wellyboots,fem_plain_fem_sws,critical,2/16/2017,10:15,left,false,3089,2,2_1_1_1,word_2_word_1,near,fire_engine,Clear_Before,preschool,hanna,2012-03-16,,Estonian,English,,,2,1,male
b4mPN,21,8,fem_plain,fem_sws,3,fire_engine,wellyboots,wellyboots,fire_engine,wellyboots,fem_plain_fem_sws,critical,2/16/2017,10:15,right,true,3438,2,2_1_1_1,word_2_word_1,near,wellyboots,Clear_Before,preschool,hanna,2012-03-16,,Estonian,English,,,2,1,male
b4mPN,22,9,fem_plain,fem_sws,1,window,pizza,pizza,pizza,window,fem_plain_fem_sws,critical,2/16/2017,10:15,left,false,3281,4,1_2_2_1,word_1_word_2,near,pizza,Clear_Before,preschool,hanna,2012-03-16,,Estonian,English,,,2,1,male
b4mPN,22,9,fem_plain,fem_sws,2,window,pizza,pizza,pizza,window,fem_plain_fem_sws,critical,2/16/2017,10:15,right,false,276,2,1_2_2_1,word_1_word_2,near,window,Clear_Before,preschool,hanna,2012-03-16,,Estonian,English,,,2,1,male
b4mPN,22,9,fem_plain,fem_sws,3,window,pizza,pizza,pizza,window,fem_plain_fem_sws,critical,2/16/2017,10:15,left,true,3530,2,1_2_2_1,word_1_word_2,near,pizza,Clear_Before,preschool,hanna,2012-03-16,,Estonian,English,,,2,1,male
b4mPN,23,13,fem_plain,fem_sws,1,airplane,toothbrush,toothbrush,toothbrush,airplane,fem_plain_fem_sws,critical,2/16/2017,10:15,left,false,3417,2,1_2_2_1,word_1_word_2,near,toothbrush,Clear_Before,preschool,hanna,2012-03-16,,Estonian,English,,,2,1,male
b4mPN,23,13,fem_plain,fem_sws,2,airplane,toothbrush,toothbrush,toothbrush,airplane,fem_plain_fem_sws,critical,2/16/2017,10:15,right,false,3448,1,1_2_2_1,word_1_word_2,near,airplane,Clear_Before,preschool,hanna,2012-03-16,,Estonian,English,,,2,1,male
b4mPN,23,13,fem_plain,fem_sws,3,airplane,toothbrush,toothbrush,toothbrush,airplane,fem_plain_fem_sws,critical,2/16/2017,10:15,left,true,3035,1,1_2_2_1,word_1_word_2,near,toothbrush,Clear_Before,preschool,hanna,2012-03-16,,Estonian,English,,,2,1,male
b4mPN,24,22,fem_plain,fem_sws,1,bike,dog,dog,dog,bike,fem_plain_fem_sws,critical,2/16/2017,10:15,left,false,3463,1,2_1_1_1,word_2_word_1,near,dog,Clear_Before,preschool,hanna,2012-03-16,,Estonian,English,,,2,1,male
b4mPN,24,22,fem_plain,fem_sws,2,bike,dog,dog,dog,bike,fem_plain_fem_sws,critical,2/16/2017,10:15,right,false,2905,1,2_1_1_1,word_2_word_1,near,bike,Clear_Before,preschool,hanna,2012-03-16,,Estonian,English,,,2,1,male
b4mPN,24,22,fem_plain,fem_sws,3,bike,dog,dog,dog,bike,fem_plain_fem_sws,critical,2/16/2017,10:15,left,true,2710,1,2_1_1_1,word_2_word_1,near,dog,Clear_Before,preschool,hanna,2012-03-16,,Estonian,English,,,2,1,male
b4mPN,25,15,fem_plain,fem_sws,1,slide,pencil,slide,pencil,slide,fem_plain_fem_sws,critical,2/16/2017,10:15,right,true,3780,2,1_2_1_1,word_2_word_1,far,slide,Clear_Before,preschool,hanna,2012-03-16,,Estonian,English,,,2,1,male
b4mPN,25,15,fem_plain,fem_sws,2,slide,pencil,slide,pencil,slide,fem_plain_fem_sws,critical,2/16/2017,10:15,right,false,4145,2,1_2_1_1,word_2_word_1,far,slide,Clear_Before,preschool,hanna,2012-03-16,,Estonian,English,,,2,1,male
b4mPN,25,15,fem_plain,fem_sws,3,slide,pencil,slide,pencil,slide,fem_plain_fem_sws,critical,2/16/2017,10:15,left,false,2148,1,1_2_1_1,word_2_word_1,far,pencil,Clear_Before,preschool,hanna,2012-03-16,,Estonian,English,,,2,1,male
