subject_id,trial_number,trial_id,plain,sws,instruction_number,sound1_item,sound2_item,sound3_item,left_image,right_image,sound_gender,trial_type,date_stamp,time_stamp,side_chosen,accuracy,rt,play_counter,order,pic_position,distance,chosen_pic,test_lang,testing_loc,tester,date_of_birth,ethnicity,native_lang,other_langs,parental_occ,dev_info,birth_order,num_siblings,gender
D1pdu,1,0,fem_plain,fem_sws,1,fireman,glasses,fireman,glasses,fireman,fem_plain_fem_sws,training,3/6/2017,14:23,right,true,6873,2,1_2_1_1,word_2_word_1,far,fireman,Clear_Before,preschool,hanna,2013-05-12,,English,,,,1,1,female
D1pdu,1,0,fem_plain,fem_sws,2,fireman,glasses,fireman,glasses,fireman,fem_plain_fem_sws,training,3/6/2017,14:23,left,true,2338,2,1_2_1_1,word_2_word_1,far,glasses,Clear_Before,preschool,hanna,2013-05-12,,English,,,,1,1,female
D1pdu,1,0,fem_plain,fem_sws,3,fireman,glasses,fireman,glasses,fireman,fem_plain_fem_sws,training,3/6/2017,14:23,right,true,2738,4,1_2_1_1,word_2_word_1,far,fireman,Clear_Before,preschool,hanna,2013-05-12,,English,,,,1,1,female
D1pdu,2,24,fem_plain,fem_sws,1,fish,sink,fish,sink,fish,fem_plain_fem_sws,critical,3/6/2017,14:23,right,true,2271,2,1_2_1_1,word_1_word_2,far,fish,Clear_Before,preschool,hanna,2013-05-12,,English,,,,1,1,female
D1pdu,2,24,fem_plain,fem_sws,2,fish,sink,fish,sink,fish,fem_plain_fem_sws,critical,3/6/2017,14:23,left,true,2594,1,1_2_1_1,word_1_word_2,far,sink,Clear_Before,preschool,hanna,2013-05-12,,English,,,,1,1,female
D1pdu,2,24,fem_plain,fem_sws,3,fish,sink,fish,sink,fish,fem_plain_fem_sws,critical,3/6/2017,14:23,right,true,7150,3,1_2_1_1,word_1_word_2,far,fish,Clear_Before,preschool,hanna,2013-05-12,,English,,,,1,1,female
D1pdu,3,16,fem_plain,fem_sws,1,paintbrush,banana,paintbrush,banana,paintbrush,fem_plain_fem_sws,critical,3/6/2017,14:23,right,true,2690,2,1_2_1_1,word_2_word_1,far,paintbrush,Clear_Before,preschool,hanna,2013-05-12,,English,,,,1,1,female
D1pdu,3,16,fem_plain,fem_sws,2,paintbrush,banana,paintbrush,banana,paintbrush,fem_plain_fem_sws,critical,3/6/2017,14:23,left,true,2007,4,1_2_1_1,word_2_word_1,far,banana,Clear_Before,preschool,hanna,2013-05-12,,English,,,,1,1,female
D1pdu,3,16,fem_plain,fem_sws,3,paintbrush,banana,paintbrush,banana,paintbrush,fem_plain_fem_sws,critical,3/6/2017,14:23,right,true,4761,2,1_2_1_1,word_2_word_1,far,paintbrush,Clear_Before,preschool,hanna,2013-05-12,,English,,,,1,1,female
D1pdu,4,13,fem_plain,fem_sws,1,airplane,toothbrush,airplane,airplane,toothbrush,fem_plain_fem_sws,critical,3/6/2017,14:23,left,true,2460,4,2_1_2_1,word_2_word_1,far,airplane,Clear_Before,preschool,hanna,2013-05-12,,English,,,,1,1,female
D1pdu,4,13,fem_plain,fem_sws,2,airplane,toothbrush,airplane,airplane,toothbrush,fem_plain_fem_sws,critical,3/6/2017,14:23,right,true,2025,2,2_1_2_1,word_2_word_1,far,toothbrush,Clear_Before,preschool,hanna,2013-05-12,,English,,,,1,1,female
D1pdu,4,13,fem_plain,fem_sws,3,airplane,toothbrush,airplane,airplane,toothbrush,fem_plain_fem_sws,critical,3/6/2017,14:23,right,false,5176,2,2_1_2_1,word_2_word_1,far,toothbrush,Clear_Before,preschool,hanna,2013-05-12,,English,,,,1,1,female
D1pdu,5,18,fem_plain,fem_sws,1,ball,raspberry,raspberry,ball,raspberry,fem_plain_fem_sws,critical,3/6/2017,14:23,left,true,2847,2,1_2_2_1,word_1_word_2,near,ball,Clear_Before,preschool,hanna,2013-05-12,,English,,,,1,1,female
D1pdu,5,18,fem_plain,fem_sws,2,ball,raspberry,raspberry,ball,raspberry,fem_plain_fem_sws,critical,3/6/2017,14:23,right,true,2540,2,1_2_2_1,word_1_word_2,near,raspberry,Clear_Before,preschool,hanna,2013-05-12,,English,,,,1,1,female
D1pdu,5,18,fem_plain,fem_sws,3,ball,raspberry,raspberry,ball,raspberry,fem_plain_fem_sws,critical,3/6/2017,14:23,right,true,4128,2,1_2_2_1,word_1_word_2,near,raspberry,Clear_Before,preschool,hanna,2013-05-12,,English,,,,1,1,female
D1pdu,6,8,fem_plain,fem_sws,1,wellyboots,fire_engine,fire_engine,wellyboots,fire_engine,fem_plain_fem_sws,critical,3/6/2017,14:23,left,true,2703,2,1_2_2_1,word_1_word_2,near,wellyboots,Clear_Before,preschool,hanna,2013-05-12,,English,,,,1,1,female
D1pdu,6,8,fem_plain,fem_sws,2,wellyboots,fire_engine,fire_engine,wellyboots,fire_engine,fem_plain_fem_sws,critical,3/6/2017,14:23,right,true,2983,1,1_2_2_1,word_1_word_2,near,fire_engine,Clear_Before,preschool,hanna,2013-05-12,,English,,,,1,1,female
D1pdu,6,8,fem_plain,fem_sws,3,wellyboots,fire_engine,fire_engine,wellyboots,fire_engine,fem_plain_fem_sws,critical,3/6/2017,14:23,left,false,6499,2,1_2_2_1,word_1_word_2,near,wellyboots,Clear_Before,preschool,hanna,2013-05-12,,English,,,,1,1,female
D1pdu,7,7,fem_plain,fem_sws,1,horse,lolly,horse,horse,lolly,fem_plain_fem_sws,critical,3/6/2017,14:23,left,true,2293,2,1_2_1_1,word_2_word_1,far,horse,Clear_Before,preschool,hanna,2013-05-12,,English,,,,1,1,female
D1pdu,7,7,fem_plain,fem_sws,2,horse,lolly,horse,horse,lolly,fem_plain_fem_sws,critical,3/6/2017,14:23,right,true,3307,1,1_2_1_1,word_2_word_1,far,lolly,Clear_Before,preschool,hanna,2013-05-12,,English,,,,1,1,female
D1pdu,7,7,fem_plain,fem_sws,3,horse,lolly,horse,horse,lolly,fem_plain_fem_sws,critical,3/6/2017,14:23,right,false,4177,1,1_2_1_1,word_2_word_1,far,lolly,Clear_Before,preschool,hanna,2013-05-12,,English,,,,1,1,female
D1pdu,8,19,fem_plain,fem_sws,1,santa,building_blocks,building_blocks,santa,building_blocks,fem_plain_fem_sws,critical,3/6/2017,14:23,left,true,3326,2,2_1_1_1,word_1_word_2,near,santa,Clear_Before,preschool,hanna,2013-05-12,,English,,,,1,1,female
D1pdu,8,19,fem_plain,fem_sws,2,santa,building_blocks,building_blocks,santa,building_blocks,fem_plain_fem_sws,critical,3/6/2017,14:23,right,true,2393,1,2_1_1_1,word_1_word_2,near,building_blocks,Clear_Before,preschool,hanna,2013-05-12,,English,,,,1,1,female
D1pdu,8,19,fem_plain,fem_sws,3,santa,building_blocks,building_blocks,santa,building_blocks,fem_plain_fem_sws,critical,3/6/2017,14:23,left,false,6193,1,2_1_1_1,word_1_word_2,near,santa,Clear_Before,preschool,hanna,2013-05-12,,English,,,,1,1,female
D1pdu,9,21,fem_plain,fem_sws,1,frog,sheep,frog,sheep,frog,fem_plain_fem_sws,critical,3/6/2017,14:23,right,true,3771,2,2_1_2_1,word_2_word_1,far,frog,Clear_Before,preschool,hanna,2013-05-12,,English,,,,1,1,female
D1pdu,9,21,fem_plain,fem_sws,2,frog,sheep,frog,sheep,frog,fem_plain_fem_sws,critical,3/6/2017,14:23,left,true,1985,3,2_1_2_1,word_2_word_1,far,sheep,Clear_Before,preschool,hanna,2013-05-12,,English,,,,1,1,female
D1pdu,9,21,fem_plain,fem_sws,3,frog,sheep,frog,sheep,frog,fem_plain_fem_sws,critical,3/6/2017,14:23,left,false,4894,1,2_1_2_1,word_2_word_1,far,sheep,Clear_Before,preschool,hanna,2013-05-12,,English,,,,1,1,female
D1pdu,10,22,fem_plain,fem_sws,1,bike,dog,bike,bike,dog,fem_plain_fem_sws,critical,3/6/2017,14:23,left,true,2200,2,1_2_1_1,word_1_word_2,far,bike,Clear_Before,preschool,hanna,2013-05-12,,English,,,,1,1,female
D1pdu,10,22,fem_plain,fem_sws,2,bike,dog,bike,bike,dog,fem_plain_fem_sws,critical,3/6/2017,14:23,right,true,2297,2,1_2_1_1,word_1_word_2,far,dog,Clear_Before,preschool,hanna,2013-05-12,,English,,,,1,1,female
D1pdu,10,22,fem_plain,fem_sws,3,bike,dog,bike,bike,dog,fem_plain_fem_sws,critical,3/6/2017,14:23,right,false,5215,1,1_2_1_1,word_1_word_2,far,dog,Clear_Before,preschool,hanna,2013-05-12,,English,,,,1,1,female
D1pdu,11,23,fem_plain,fem_sws,1,teddy_bear,bath,teddy_bear,teddy_bear,bath,fem_plain_fem_sws,critical,3/6/2017,14:23,left,true,2787,2,2_1_2_1,word_2_word_1,far,teddy_bear,Clear_Before,preschool,hanna,2013-05-12,,English,,,,1,1,female
D1pdu,11,23,fem_plain,fem_sws,2,teddy_bear,bath,teddy_bear,teddy_bear,bath,fem_plain_fem_sws,critical,3/6/2017,14:23,right,true,2432,1,2_1_2_1,word_2_word_1,far,bath,Clear_Before,preschool,hanna,2013-05-12,,English,,,,1,1,female
D1pdu,11,23,fem_plain,fem_sws,3,teddy_bear,bath,teddy_bear,teddy_bear,bath,fem_plain_fem_sws,critical,3/6/2017,14:23,left,true,4165,1,2_1_2_1,word_2_word_1,far,teddy_bear,Clear_Before,preschool,hanna,2013-05-12,,English,,,,1,1,female
D1pdu,12,4,fem_plain,fem_sws,1,strawberry,coat,coat,strawberry,coat,fem_plain_fem_sws,critical,3/6/2017,14:23,left,true,2412,2,2_1_1_1,word_2_word_1,near,strawberry,Clear_Before,preschool,hanna,2013-05-12,,English,,,,1,1,female
D1pdu,12,4,fem_plain,fem_sws,2,strawberry,coat,coat,strawberry,coat,fem_plain_fem_sws,critical,3/6/2017,14:23,right,true,1335,2,2_1_1_1,word_2_word_1,near,coat,Clear_Before,preschool,hanna,2013-05-12,,English,,,,1,1,female
D1pdu,12,4,fem_plain,fem_sws,3,strawberry,coat,coat,strawberry,coat,fem_plain_fem_sws,critical,3/6/2017,14:23,left,false,3072,2,2_1_1_1,word_2_word_1,near,strawberry,Clear_Before,preschool,hanna,2013-05-12,,English,,,,1,1,female
D1pdu,13,14,fem_plain,fem_sws,1,cheese,shoes,shoes,shoes,cheese,fem_plain_fem_sws,critical,3/6/2017,14:23,right,true,2591,2,2_1_1_1,word_2_word_1,near,cheese,Clear_Before,preschool,hanna,2013-05-12,,English,,,,1,1,female
D1pdu,13,14,fem_plain,fem_sws,2,cheese,shoes,shoes,shoes,cheese,fem_plain_fem_sws,critical,3/6/2017,14:23,left,true,2785,1,2_1_1_1,word_2_word_1,near,shoes,Clear_Before,preschool,hanna,2013-05-12,,English,,,,1,1,female
D1pdu,13,14,fem_plain,fem_sws,3,cheese,shoes,shoes,shoes,cheese,fem_plain_fem_sws,critical,3/6/2017,14:23,right,false,4503,1,2_1_1_1,word_2_word_1,near,cheese,Clear_Before,preschool,hanna,2013-05-12,,English,,,,1,1,female
D1pdu,14,10,fem_plain,fem_sws,1,pig,tshirt,pig,pig,tshirt,fem_plain_fem_sws,critical,3/6/2017,14:23,left,true,1945,2,2_1_2_1,word_1_word_2,far,pig,Clear_Before,preschool,hanna,2013-05-12,,English,,,,1,1,female
D1pdu,14,10,fem_plain,fem_sws,2,pig,tshirt,pig,pig,tshirt,fem_plain_fem_sws,critical,3/6/2017,14:23,right,true,1479,2,2_1_2_1,word_1_word_2,far,tshirt,Clear_Before,preschool,hanna,2013-05-12,,English,,,,1,1,female
D1pdu,14,10,fem_plain,fem_sws,3,pig,tshirt,pig,pig,tshirt,fem_plain_fem_sws,critical,3/6/2017,14:23,left,true,4202,2,2_1_2_1,word_1_word_2,far,pig,Clear_Before,preschool,hanna,2013-05-12,,English,,,,1,1,female
D1pdu,15,9,fem_plain,fem_sws,1,pizza,window,window,window,pizza,fem_plain_fem_sws,critical,3/6/2017,14:23,right,true,2741,2,1_2_2_1,word_2_word_1,near,pizza,Clear_Before,preschool,hanna,2013-05-12,,English,,,,1,1,female
D1pdu,15,9,fem_plain,fem_sws,2,pizza,window,window,window,pizza,fem_plain_fem_sws,critical,3/6/2017,14:23,left,true,2200,1,1_2_2_1,word_2_word_1,near,window,Clear_Before,preschool,hanna,2013-05-12,,English,,,,1,1,female
D1pdu,15,9,fem_plain,fem_sws,3,pizza,window,window,window,pizza,fem_plain_fem_sws,critical,3/6/2017,14:23,right,false,3308,1,1_2_2_1,word_2_word_1,near,pizza,Clear_Before,preschool,hanna,2013-05-12,,English,,,,1,1,female
D1pdu,16,3,fem_plain,fem_sws,1,trousers,nose,trousers,trousers,nose,fem_plain_fem_sws,critical,3/6/2017,14:23,left,true,2682,2,1_2_1_1,word_1_word_2,far,trousers,Clear_Before,preschool,hanna,2013-05-12,,English,,,,1,1,female
D1pdu,16,3,fem_plain,fem_sws,2,trousers,nose,trousers,trousers,nose,fem_plain_fem_sws,critical,3/6/2017,14:23,right,true,2397,1,1_2_1_1,word_1_word_2,far,nose,Clear_Before,preschool,hanna,2013-05-12,,English,,,,1,1,female
D1pdu,16,3,fem_plain,fem_sws,3,trousers,nose,trousers,trousers,nose,fem_plain_fem_sws,critical,3/6/2017,14:23,left,true,4435,1,1_2_1_1,word_1_word_2,far,trousers,Clear_Before,preschool,hanna,2013-05-12,,English,,,,1,1,female
D1pdu,17,5,fem_plain,fem_sws,1,orange,car,car,orange,car,fem_plain_fem_sws,critical,3/6/2017,14:23,left,true,3206,2,2_1_1_1,word_1_word_2,near,orange,Clear_Before,preschool,hanna,2013-05-12,,English,,,,1,1,female
D1pdu,17,5,fem_plain,fem_sws,2,orange,car,car,orange,car,fem_plain_fem_sws,critical,3/6/2017,14:23,right,true,3006,2,2_1_1_1,word_1_word_2,near,car,Clear_Before,preschool,hanna,2013-05-12,,English,,,,1,1,female
D1pdu,17,5,fem_plain,fem_sws,3,orange,car,car,orange,car,fem_plain_fem_sws,critical,3/6/2017,14:23,left,false,4907,2,2_1_1_1,word_1_word_2,near,orange,Clear_Before,preschool,hanna,2013-05-12,,English,,,,1,1,female
D1pdu,18,12,fem_plain,fem_sws,1,yoghurt,foot,yoghurt,foot,yoghurt,fem_plain_fem_sws,critical,3/6/2017,14:23,left,false,1598,4,2_1_2_1,word_1_word_2,far,foot,Clear_Before,preschool,hanna,2013-05-12,,English,,,,1,1,female
D1pdu,18,12,fem_plain,fem_sws,2,yoghurt,foot,yoghurt,foot,yoghurt,fem_plain_fem_sws,critical,3/6/2017,14:23,right,false,2660,2,2_1_2_1,word_1_word_2,far,yoghurt,Clear_Before,preschool,hanna,2013-05-12,,English,,,,1,1,female
D1pdu,18,12,fem_plain,fem_sws,3,yoghurt,foot,yoghurt,foot,yoghurt,fem_plain_fem_sws,critical,3/6/2017,14:23,left,false,2476,2,2_1_2_1,word_1_word_2,far,foot,Clear_Before,preschool,hanna,2013-05-12,,English,,,,1,1,female
D1pdu,19,11,fem_plain,fem_sws,1,book,lorry,book,book,lorry,fem_plain_fem_sws,critical,3/6/2017,14:23,left,true,5524,2,2_1_2_1,word_1_word_2,far,book,Clear_Before,preschool,hanna,2013-05-12,,English,,,,1,1,female
D1pdu,19,11,fem_plain,fem_sws,2,book,lorry,book,book,lorry,fem_plain_fem_sws,critical,3/6/2017,14:23,left,false,3561,2,2_1_2_1,word_1_word_2,far,book,Clear_Before,preschool,hanna,2013-05-12,,English,,,,1,1,female
D1pdu,19,11,fem_plain,fem_sws,3,book,lorry,book,book,lorry,fem_plain_fem_sws,critical,3/6/2017,14:23,right,false,2383,1,2_1_2_1,word_1_word_2,far,lorry,Clear_Before,preschool,hanna,2013-05-12,,English,,,,1,1,female
D1pdu,20,1,fem_plain,fem_sws,1,baby,spoon,spoon,baby,spoon,fem_plain_fem_sws,critical,3/6/2017,14:23,left,true,3975,2,2_1_1_1,word_2_word_1,near,baby,Clear_Before,preschool,hanna,2013-05-12,,English,,,,1,1,female
D1pdu,20,1,fem_plain,fem_sws,2,baby,spoon,spoon,baby,spoon,fem_plain_fem_sws,critical,3/6/2017,14:23,right,true,1476,2,2_1_1_1,word_2_word_1,near,spoon,Clear_Before,preschool,hanna,2013-05-12,,English,,,,1,1,female
D1pdu,20,1,fem_plain,fem_sws,3,baby,spoon,spoon,baby,spoon,fem_plain_fem_sws,critical,3/6/2017,14:23,right,true,2689,2,2_1_1_1,word_2_word_1,near,spoon,Clear_Before,preschool,hanna,2013-05-12,,English,,,,1,1,female
D1pdu,21,6,fem_plain,fem_sws,1,peas,bird,bird,bird,peas,fem_plain_fem_sws,critical,3/6/2017,14:23,right,true,4939,4,1_2_2_1,word_1_word_2,near,peas,Clear_Before,preschool,hanna,2013-05-12,,English,,,,1,1,female
D1pdu,21,6,fem_plain,fem_sws,2,peas,bird,bird,bird,peas,fem_plain_fem_sws,critical,3/6/2017,14:23,right,false,2554,2,1_2_2_1,word_1_word_2,near,peas,Clear_Before,preschool,hanna,2013-05-12,,English,,,,1,1,female
D1pdu,21,6,fem_plain,fem_sws,3,peas,bird,bird,bird,peas,fem_plain_fem_sws,critical,3/6/2017,14:23,left,true,1810,1,1_2_2_1,word_1_word_2,near,bird,Clear_Before,preschool,hanna,2013-05-12,,English,,,,1,1,female
D1pdu,22,2,fem_plain,fem_sws,1,chicken,bed,bed,bed,chicken,fem_plain_fem_sws,critical,3/6/2017,14:23,left,false,4523,2,1_2_2_1,word_1_word_2,near,bed,Clear_Before,preschool,hanna,2013-05-12,,English,,,,1,1,female
D1pdu,22,2,fem_plain,fem_sws,2,chicken,bed,bed,bed,chicken,fem_plain_fem_sws,critical,3/6/2017,14:23,right,false,2291,2,1_2_2_1,word_1_word_2,near,chicken,Clear_Before,preschool,hanna,2013-05-12,,English,,,,1,1,female
D1pdu,22,2,fem_plain,fem_sws,3,chicken,bed,bed,bed,chicken,fem_plain_fem_sws,critical,3/6/2017,14:23,left,true,3368,1,1_2_2_1,word_1_word_2,near,bed,Clear_Before,preschool,hanna,2013-05-12,,English,,,,1,1,female
D1pdu,23,17,fem_plain,fem_sws,1,ambulance,cake,cake,ambulance,cake,fem_plain_fem_sws,critical,3/6/2017,14:23,right,false,4446,2,2_1_1_1,word_2_word_1,near,cake,Clear_Before,preschool,hanna,2013-05-12,,English,,,,1,1,female
D1pdu,23,17,fem_plain,fem_sws,2,ambulance,cake,cake,ambulance,cake,fem_plain_fem_sws,critical,3/6/2017,14:23,left,false,2708,1,2_1_1_1,word_2_word_1,near,ambulance,Clear_Before,preschool,hanna,2013-05-12,,English,,,,1,1,female
D1pdu,23,17,fem_plain,fem_sws,3,ambulance,cake,cake,ambulance,cake,fem_plain_fem_sws,critical,3/6/2017,14:23,right,true,3083,1,2_1_1_1,word_2_word_1,near,cake,Clear_Before,preschool,hanna,2013-05-12,,English,,,,1,1,female
D1pdu,24,15,fem_plain,fem_sws,1,slide,pencil,pencil,pencil,slide,fem_plain_fem_sws,critical,3/6/2017,14:23,right,true,5124,2,1_2_2_1,word_2_word_1,near,slide,Clear_Before,preschool,hanna,2013-05-12,,English,,,,1,1,female
D1pdu,24,15,fem_plain,fem_sws,2,slide,pencil,pencil,pencil,slide,fem_plain_fem_sws,critical,3/6/2017,14:23,right,false,3988,2,1_2_2_1,word_2_word_1,near,slide,Clear_Before,preschool,hanna,2013-05-12,,English,,,,1,1,female
D1pdu,24,15,fem_plain,fem_sws,3,slide,pencil,pencil,pencil,slide,fem_plain_fem_sws,critical,3/6/2017,14:23,left,true,2242,2,1_2_2_1,word_2_word_1,near,pencil,Clear_Before,preschool,hanna,2013-05-12,,English,,,,1,1,female
D1pdu,25,20,fem_plain,fem_sws,1,rabbit,jumper,rabbit,rabbit,jumper,fem_plain_fem_sws,critical,3/6/2017,14:23,left,true,4402,2,1_2_1_1,word_2_word_1,far,rabbit,Clear_Before,preschool,hanna,2013-05-12,,English,,,,1,1,female
D1pdu,25,20,fem_plain,fem_sws,2,rabbit,jumper,rabbit,rabbit,jumper,fem_plain_fem_sws,critical,3/6/2017,14:23,left,false,2421,1,1_2_1_1,word_2_word_1,far,rabbit,Clear_Before,preschool,hanna,2013-05-12,,English,,,,1,1,female
D1pdu,25,20,fem_plain,fem_sws,3,rabbit,jumper,rabbit,rabbit,jumper,fem_plain_fem_sws,critical,3/6/2017,14:23,right,false,1968,1,1_2_1_1,word_2_word_1,far,jumper,Clear_Before,preschool,hanna,2013-05-12,,English,,,,1,1,female
