subject_id,trial_number,trial_id,plain,sws,instruction_number,sound1_item,sound2_item,sound3_item,left_image,right_image,sound_gender,trial_type,date_stamp,time_stamp,side_chosen,accuracy,rt,play_counter,order,pic_position,distance,chosen_pic,test_lang,testing_loc,tester,date_of_birth,ethnicity,native_lang,other_langs,parental_occ,dev_info,birth_order,num_siblings,gender
e6ael,1,0,mal_plain,fem_sws,1,fireman,glasses,glasses,fireman,glasses,mal_plain_fem_sws,training,3/20/2017,10:48,right,false,3553,28,1_2_2_1,word_1_word_2,near,glasses,Clear_After,preschool,hanna,2014-12-18,,English,,,,,,female
e6ael,1,0,mal_plain,fem_sws,2,fireman,glasses,glasses,fireman,glasses,mal_plain_fem_sws,training,3/20/2017,10:48,right,true,5121,27,1_2_2_1,word_1_word_2,near,glasses,Clear_After,preschool,hanna,2014-12-18,,English,,,,,,female
e6ael,1,0,mal_plain,fem_sws,3,fireman,glasses,glasses,fireman,glasses,mal_plain_fem_sws,training,3/20/2017,10:48,right,true,9657,8,1_2_2_1,word_1_word_2,near,glasses,Clear_After,preschool,hanna,2014-12-18,,English,,,,,,female
e6ael,2,23,mal_plain,fem_sws,1,teddy_bear,bath,bath,bath,teddy_bear,mal_plain_fem_sws,critical,3/20/2017,10:48,left,false,559,2,2_1_1_1,word_1_word_2,near,bath,Clear_After,preschool,hanna,2014-12-18,,English,,,,,,female
e6ael,2,23,mal_plain,fem_sws,2,teddy_bear,bath,bath,bath,teddy_bear,mal_plain_fem_sws,critical,3/20/2017,10:48,left,true,4018,8,2_1_1_1,word_1_word_2,near,bath,Clear_After,preschool,hanna,2014-12-18,,English,,,,,,female
e6ael,2,23,mal_plain,fem_sws,3,teddy_bear,bath,bath,bath,teddy_bear,mal_plain_fem_sws,critical,3/20/2017,10:48,left,true,4438,3,2_1_1_1,word_1_word_2,near,bath,Clear_After,preschool,hanna,2014-12-18,,English,,,,,,female
e6ael,3,19,mal_plain,fem_sws,1,building_blocks,santa,building_blocks,santa,building_blocks,mal_plain_fem_sws,critical,3/20/2017,10:48,left,false,3968,2,2_1_2_1,word_1_word_2,far,santa,Clear_After,preschool,hanna,2014-12-18,,English,,,,,,female
e6ael,3,19,mal_plain,fem_sws,2,building_blocks,santa,building_blocks,santa,building_blocks,mal_plain_fem_sws,critical,3/20/2017,10:48,left,true,14913,4,2_1_2_1,word_1_word_2,far,santa,Clear_After,preschool,hanna,2014-12-18,,English,,,,,,female
e6ael,3,19,mal_plain,fem_sws,3,building_blocks,santa,building_blocks,santa,building_blocks,mal_plain_fem_sws,critical,3/20/2017,10:48,left,false,14534,4,2_1_2_1,word_1_word_2,far,santa,Clear_After,preschool,hanna,2014-12-18,,English,,,,,,female
e6ael,4,7,mal_plain,fem_sws,1,horse,lolly,lolly,lolly,horse,mal_plain_fem_sws,critical,3/20/2017,10:48,left,false,3068,2,2_1_1_1,word_1_word_2,near,lolly,Clear_After,preschool,hanna,2014-12-18,,English,,,,,,female
e6ael,4,7,mal_plain,fem_sws,2,horse,lolly,lolly,lolly,horse,mal_plain_fem_sws,critical,3/20/2017,10:48,right,false,331,7,2_1_1_1,word_1_word_2,near,horse,Clear_After,preschool,hanna,2014-12-18,,English,,,,,,female
e6ael,4,7,mal_plain,fem_sws,3,horse,lolly,lolly,lolly,horse,mal_plain_fem_sws,critical,3/20/2017,10:48,left,true,11506,4,2_1_1_1,word_1_word_2,near,lolly,Clear_After,preschool,hanna,2014-12-18,,English,,,,,,female
e6ael,5,22,mal_plain,fem_sws,1,bike,dog,bike,dog,bike,mal_plain_fem_sws,critical,3/20/2017,10:48,right,true,1762,2,2_1_2_1,word_2_word_1,far,bike,Clear_After,preschool,hanna,2014-12-18,,English,,,,,,female
e6ael,5,22,mal_plain,fem_sws,2,bike,dog,bike,dog,bike,mal_plain_fem_sws,critical,3/20/2017,10:48,left,true,12622,2,2_1_2_1,word_2_word_1,far,dog,Clear_After,preschool,hanna,2014-12-18,,English,,,,,,female
e6ael,5,22,mal_plain,fem_sws,3,bike,dog,bike,dog,bike,mal_plain_fem_sws,critical,3/20/2017,10:48,right,true,4202,2,2_1_2_1,word_2_word_1,far,bike,Clear_After,preschool,hanna,2014-12-18,,English,,,,,,female
e6ael,6,9,mal_plain,fem_sws,1,pizza,window,pizza,pizza,window,mal_plain_fem_sws,critical,3/20/2017,10:48,right,false,10844,13,1_2_1_1,word_1_word_2,far,window,Clear_After,preschool,hanna,2014-12-18,,English,,,,,,female
e6ael,6,9,mal_plain,fem_sws,2,pizza,window,pizza,pizza,window,mal_plain_fem_sws,critical,3/20/2017,10:48,left,false,612,2,1_2_1_1,word_1_word_2,far,pizza,Clear_After,preschool,hanna,2014-12-18,,English,,,,,,female
e6ael,6,9,mal_plain,fem_sws,3,pizza,window,pizza,pizza,window,mal_plain_fem_sws,critical,3/20/2017,10:48,right,false,14061,4,1_2_1_1,word_1_word_2,far,window,Clear_After,preschool,hanna,2014-12-18,,English,,,,,,female
e6ael,7,15,mal_plain,fem_sws,1,slide,pencil,pencil,slide,pencil,mal_plain_fem_sws,critical,3/20/2017,10:48,right,false,3612,8,1_2_2_1,word_1_word_2,near,pencil,Clear_After,preschool,hanna,2014-12-18,,English,,,,,,female
e6ael,7,15,mal_plain,fem_sws,2,slide,pencil,pencil,slide,pencil,mal_plain_fem_sws,critical,3/20/2017,10:48,left,false,20457,5,1_2_2_1,word_1_word_2,near,slide,Clear_After,preschool,hanna,2014-12-18,,English,,,,,,female
e6ael,7,15,mal_plain,fem_sws,3,slide,pencil,pencil,slide,pencil,mal_plain_fem_sws,critical,3/20/2017,10:48,right,true,6619,1,1_2_2_1,word_1_word_2,near,pencil,Clear_After,preschool,hanna,2014-12-18,,English,,,,,,female
e6ael,8,5,mal_plain,fem_sws,1,car,orange,orange,car,orange,mal_plain_fem_sws,critical,3/20/2017,10:48,right,false,6360,2,1_2_2_1,word_2_word_1,near,orange,Clear_After,preschool,hanna,2014-12-18,,English,,,,,,female
e6ael,8,5,mal_plain,fem_sws,2,car,orange,orange,car,orange,mal_plain_fem_sws,critical,3/20/2017,10:48,left,false,387,2,1_2_2_1,word_2_word_1,near,car,Clear_After,preschool,hanna,2014-12-18,,English,,,,,,female
e6ael,8,5,mal_plain,fem_sws,3,car,orange,orange,car,orange,mal_plain_fem_sws,critical,3/20/2017,10:48,left,false,4980,13,1_2_2_1,word_2_word_1,near,car,Clear_After,preschool,hanna,2014-12-18,,English,,,,,,female
e6ael,9,3,mal_plain,fem_sws,1,nose,trousers,trousers,nose,trousers,mal_plain_fem_sws,critical,3/20/2017,10:48,left,true,10316,4,2_1_1_1,word_2_word_1,near,nose,Clear_After,preschool,hanna,2014-12-18,,English,,,,,,female
e6ael,9,3,mal_plain,fem_sws,2,nose,trousers,trousers,nose,trousers,mal_plain_fem_sws,critical,3/20/2017,10:48,left,false,8371,4,2_1_1_1,word_2_word_1,near,nose,Clear_After,preschool,hanna,2014-12-18,,English,,,,,,female
e6ael,9,3,mal_plain,fem_sws,3,nose,trousers,trousers,nose,trousers,mal_plain_fem_sws,critical,3/20/2017,10:48,right,true,271,8,2_1_1_1,word_2_word_1,near,trousers,Clear_After,preschool,hanna,2014-12-18,,English,,,,,,female
e6ael,10,8,mal_plain,fem_sws,1,fire_engine,wellyboots,fire_engine,fire_engine,wellyboots,mal_plain_fem_sws,critical,3/20/2017,10:48,right,false,1809,2,2_1_2_1,word_2_word_1,far,wellyboots,Clear_After,preschool,hanna,2014-12-18,,English,,,,,,female
e6ael,10,8,mal_plain,fem_sws,2,fire_engine,wellyboots,fire_engine,fire_engine,wellyboots,mal_plain_fem_sws,critical,3/20/2017,10:48,left,false,10458,2,2_1_2_1,word_2_word_1,far,fire_engine,Clear_After,preschool,hanna,2014-12-18,,English,,,,,,female
e6ael,10,8,mal_plain,fem_sws,3,fire_engine,wellyboots,fire_engine,fire_engine,wellyboots,mal_plain_fem_sws,critical,3/20/2017,10:48,right,false,31083,2,2_1_2_1,word_2_word_1,far,wellyboots,Clear_After,preschool,hanna,2014-12-18,,English,,,,,,female
