subject_id,trial_number,trial_id,plain,sws,instruction_number,sound1_item,sound2_item,sound3_item,left_image,right_image,sound_gender,trial_type,date_stamp,time_stamp,side_chosen,accuracy,rt,play_counter,order,pic_position,distance,chosen_pic,test_lang,testing_loc,tester,date_of_birth,ethnicity,native_lang,other_langs,parental_occ,dev_info,birth_order,num_siblings,gender
EiW2l,1,0,fem_plain,mal_sws,1,glasses,fireman,fireman,glasses,fireman,fem_plain_mal_sws,training,4/5/2017,15:27,right,false,10254,4,2_1_1_1,word_2_word_1,near,fireman,Clear_After,lab,hanna,2014-11-11,,English,,,,1,1,male
EiW2l,1,0,fem_plain,mal_sws,2,glasses,fireman,fireman,glasses,fireman,fem_plain_mal_sws,training,4/5/2017,15:27,left,false,3522,4,2_1_1_1,word_2_word_1,near,glasses,Clear_After,lab,hanna,2014-11-11,,English,,,,1,1,male
EiW2l,1,0,fem_plain,mal_sws,3,glasses,fireman,fireman,glasses,fireman,fem_plain_mal_sws,training,4/5/2017,15:27,right,true,5117,4,2_1_1_1,word_2_word_1,near,fireman,Clear_After,lab,hanna,2014-11-11,,English,,,,1,1,male
EiW2l,2,13,fem_plain,mal_sws,1,airplane,toothbrush,airplane,toothbrush,airplane,fem_plain_mal_sws,critical,4/5/2017,15:27,right,true,9427,2,1_2_1_1,word_1_word_2,far,airplane,Clear_After,lab,hanna,2014-11-11,,English,,,,1,1,male
EiW2l,2,13,fem_plain,mal_sws,2,airplane,toothbrush,airplane,toothbrush,airplane,fem_plain_mal_sws,critical,4/5/2017,15:27,right,false,3286,4,1_2_1_1,word_1_word_2,far,airplane,Clear_After,lab,hanna,2014-11-11,,English,,,,1,1,male
EiW2l,2,13,fem_plain,mal_sws,3,airplane,toothbrush,airplane,toothbrush,airplane,fem_plain_mal_sws,critical,4/5/2017,15:27,left,false,2812,2,1_2_1_1,word_1_word_2,far,toothbrush,Clear_After,lab,hanna,2014-11-11,,English,,,,1,1,male
EiW2l,3,19,fem_plain,mal_sws,1,building_blocks,santa,building_blocks,santa,building_blocks,fem_plain_mal_sws,critical,4/5/2017,15:27,right,true,8504,2,2_1_2_1,word_1_word_2,far,building_blocks,Clear_After,lab,hanna,2014-11-11,,English,,,,1,1,male
EiW2l,3,19,fem_plain,mal_sws,2,building_blocks,santa,building_blocks,santa,building_blocks,fem_plain_mal_sws,critical,4/5/2017,15:27,right,false,3385,2,2_1_2_1,word_1_word_2,far,building_blocks,Clear_After,lab,hanna,2014-11-11,,English,,,,1,1,male
EiW2l,3,19,fem_plain,mal_sws,3,building_blocks,santa,building_blocks,santa,building_blocks,fem_plain_mal_sws,critical,4/5/2017,15:27,left,false,4266,2,2_1_2_1,word_1_word_2,far,santa,Clear_After,lab,hanna,2014-11-11,,English,,,,1,1,male
EiW2l,4,7,fem_plain,mal_sws,1,lolly,horse,horse,lolly,horse,fem_plain_mal_sws,critical,4/5/2017,15:27,right,false,3954,2,1_2_2_1,word_1_word_2,near,horse,Clear_After,lab,hanna,2014-11-11,,English,,,,1,1,male
EiW2l,4,7,fem_plain,mal_sws,2,lolly,horse,horse,lolly,horse,fem_plain_mal_sws,critical,4/5/2017,15:27,left,false,3867,2,1_2_2_1,word_1_word_2,near,lolly,Clear_After,lab,hanna,2014-11-11,,English,,,,1,1,male
EiW2l,4,7,fem_plain,mal_sws,3,lolly,horse,horse,lolly,horse,fem_plain_mal_sws,critical,4/5/2017,15:27,right,true,2595,2,1_2_2_1,word_1_word_2,near,horse,Clear_After,lab,hanna,2014-11-11,,English,,,,1,1,male
EiW2l,5,22,fem_plain,mal_sws,1,bike,dog,bike,bike,dog,fem_plain_mal_sws,critical,4/5/2017,15:27,left,true,10774,2,2_1_2_1,word_1_word_2,far,bike,Clear_After,lab,hanna,2014-11-11,,English,,,,1,1,male
EiW2l,5,22,fem_plain,mal_sws,2,bike,dog,bike,bike,dog,fem_plain_mal_sws,critical,4/5/2017,15:27,left,false,3072,2,2_1_2_1,word_1_word_2,far,bike,Clear_After,lab,hanna,2014-11-11,,English,,,,1,1,male
EiW2l,5,22,fem_plain,mal_sws,3,bike,dog,bike,bike,dog,fem_plain_mal_sws,critical,4/5/2017,15:27,right,false,2697,1,2_1_2_1,word_1_word_2,far,dog,Clear_After,lab,hanna,2014-11-11,,English,,,,1,1,male
EiW2l,6,6,fem_plain,mal_sws,1,peas,bird,peas,peas,bird,fem_plain_mal_sws,critical,4/5/2017,15:27,left,true,4831,4,1_2_1_1,word_2_word_1,far,peas,Clear_After,lab,hanna,2014-11-11,,English,,,,1,1,male
EiW2l,6,6,fem_plain,mal_sws,2,peas,bird,peas,peas,bird,fem_plain_mal_sws,critical,4/5/2017,15:27,left,false,2881,1,1_2_1_1,word_2_word_1,far,peas,Clear_After,lab,hanna,2014-11-11,,English,,,,1,1,male
EiW2l,6,6,fem_plain,mal_sws,3,peas,bird,peas,peas,bird,fem_plain_mal_sws,critical,4/5/2017,15:27,right,false,2437,1,1_2_1_1,word_2_word_1,far,bird,Clear_After,lab,hanna,2014-11-11,,English,,,,1,1,male
EiW2l,7,23,fem_plain,mal_sws,1,teddy_bear,bath,bath,teddy_bear,bath,fem_plain_mal_sws,critical,4/5/2017,15:27,right,false,2981,2,2_1_1_1,word_2_word_1,near,bath,Clear_After,lab,hanna,2014-11-11,,English,,,,1,1,male
EiW2l,7,23,fem_plain,mal_sws,2,teddy_bear,bath,bath,teddy_bear,bath,fem_plain_mal_sws,critical,4/5/2017,15:27,left,false,3217,2,2_1_1_1,word_2_word_1,near,teddy_bear,Clear_After,lab,hanna,2014-11-11,,English,,,,1,1,male
EiW2l,7,23,fem_plain,mal_sws,3,teddy_bear,bath,bath,teddy_bear,bath,fem_plain_mal_sws,critical,4/5/2017,15:27,right,true,2827,2,2_1_1_1,word_2_word_1,near,bath,Clear_After,lab,hanna,2014-11-11,,English,,,,1,1,male
EiW2l,8,1,fem_plain,mal_sws,1,baby,spoon,spoon,baby,spoon,fem_plain_mal_sws,critical,4/5/2017,15:27,right,false,4066,2,2_1_1_1,word_2_word_1,near,spoon,Clear_After,lab,hanna,2014-11-11,,English,,,,1,1,male
EiW2l,8,1,fem_plain,mal_sws,2,baby,spoon,spoon,baby,spoon,fem_plain_mal_sws,critical,4/5/2017,15:27,left,false,2534,2,2_1_1_1,word_2_word_1,near,baby,Clear_After,lab,hanna,2014-11-11,,English,,,,1,1,male
EiW2l,8,1,fem_plain,mal_sws,3,baby,spoon,spoon,baby,spoon,fem_plain_mal_sws,critical,4/5/2017,15:27,right,true,3076,2,2_1_1_1,word_2_word_1,near,spoon,Clear_After,lab,hanna,2014-11-11,,English,,,,1,1,male
EiW2l,9,16,fem_plain,mal_sws,1,paintbrush,banana,banana,banana,paintbrush,fem_plain_mal_sws,critical,4/5/2017,15:27,right,true,5962,2,1_2_2_1,word_2_word_1,near,paintbrush,Clear_After,lab,hanna,2014-11-11,,English,,,,1,1,male
EiW2l,9,16,fem_plain,mal_sws,2,paintbrush,banana,banana,banana,paintbrush,fem_plain_mal_sws,critical,4/5/2017,15:27,right,false,3612,2,1_2_2_1,word_2_word_1,near,paintbrush,Clear_After,lab,hanna,2014-11-11,,English,,,,1,1,male
EiW2l,9,16,fem_plain,mal_sws,3,paintbrush,banana,banana,banana,paintbrush,fem_plain_mal_sws,critical,4/5/2017,15:27,left,true,2559,2,1_2_2_1,word_2_word_1,near,banana,Clear_After,lab,hanna,2014-11-11,,English,,,,1,1,male
EiW2l,10,17,fem_plain,mal_sws,1,ambulance,cake,ambulance,ambulance,cake,fem_plain_mal_sws,critical,4/5/2017,15:27,right,false,2854,2,1_2_1_1,word_2_word_1,far,cake,Clear_After,lab,hanna,2014-11-11,,English,,,,1,1,male
EiW2l,10,17,fem_plain,mal_sws,2,ambulance,cake,ambulance,ambulance,cake,fem_plain_mal_sws,critical,4/5/2017,15:27,left,false,1856,1,1_2_1_1,word_2_word_1,far,ambulance,Clear_After,lab,hanna,2014-11-11,,English,,,,1,1,male
EiW2l,10,17,fem_plain,mal_sws,3,ambulance,cake,ambulance,ambulance,cake,fem_plain_mal_sws,critical,4/5/2017,15:27,right,false,3631,2,1_2_1_1,word_2_word_1,far,cake,Clear_After,lab,hanna,2014-11-11,,English,,,,1,1,male
EiW2l,11,10,fem_plain,mal_sws,1,pig,tshirt,pig,tshirt,pig,fem_plain_mal_sws,critical,4/5/2017,15:27,right,true,1658,2,2_1_2_1,word_2_word_1,far,pig,Clear_After,lab,hanna,2014-11-11,,English,,,,1,1,male
EiW2l,11,10,fem_plain,mal_sws,2,pig,tshirt,pig,tshirt,pig,fem_plain_mal_sws,critical,4/5/2017,15:27,right,false,2074,2,2_1_2_1,word_2_word_1,far,pig,Clear_After,lab,hanna,2014-11-11,,English,,,,1,1,male
EiW2l,11,10,fem_plain,mal_sws,3,pig,tshirt,pig,tshirt,pig,fem_plain_mal_sws,critical,4/5/2017,15:27,left,false,3398,2,2_1_2_1,word_2_word_1,far,tshirt,Clear_After,lab,hanna,2014-11-11,,English,,,,1,1,male
EiW2l,12,9,fem_plain,mal_sws,1,pizza,window,window,window,pizza,fem_plain_mal_sws,critical,4/5/2017,15:27,left,false,4059,2,1_2_2_1,word_2_word_1,near,window,Clear_After,lab,hanna,2014-11-11,,English,,,,1,1,male
EiW2l,12,9,fem_plain,mal_sws,2,pizza,window,window,window,pizza,fem_plain_mal_sws,critical,4/5/2017,15:27,right,false,2053,2,1_2_2_1,word_2_word_1,near,pizza,Clear_After,lab,hanna,2014-11-11,,English,,,,1,1,male
EiW2l,12,9,fem_plain,mal_sws,3,pizza,window,window,window,pizza,fem_plain_mal_sws,critical,4/5/2017,15:27,left,true,2410,2,1_2_2_1,word_2_word_1,near,window,Clear_After,lab,hanna,2014-11-11,,English,,,,1,1,male
EiW2l,13,21,fem_plain,mal_sws,1,frog,sheep,sheep,sheep,frog,fem_plain_mal_sws,critical,4/5/2017,15:27,right,true,2534,2,2_1_1_1,word_2_word_1,near,frog,Clear_After,lab,hanna,2014-11-11,,English,,,,1,1,male
EiW2l,13,21,fem_plain,mal_sws,2,frog,sheep,sheep,sheep,frog,fem_plain_mal_sws,critical,4/5/2017,15:27,right,false,2805,4,2_1_1_1,word_2_word_1,near,frog,Clear_After,lab,hanna,2014-11-11,,English,,,,1,1,male
EiW2l,13,21,fem_plain,mal_sws,3,frog,sheep,sheep,sheep,frog,fem_plain_mal_sws,critical,4/5/2017,15:27,left,true,2788,2,2_1_1_1,word_2_word_1,near,sheep,Clear_After,lab,hanna,2014-11-11,,English,,,,1,1,male
EiW2l,14,15,fem_plain,mal_sws,1,slide,pencil,slide,slide,pencil,fem_plain_mal_sws,critical,4/5/2017,15:27,right,false,2461,4,2_1_2_1,word_1_word_2,far,pencil,Clear_After,lab,hanna,2014-11-11,,English,,,,1,1,male
EiW2l,14,15,fem_plain,mal_sws,2,slide,pencil,slide,slide,pencil,fem_plain_mal_sws,critical,4/5/2017,15:27,left,false,3999,1,2_1_2_1,word_1_word_2,far,slide,Clear_After,lab,hanna,2014-11-11,,English,,,,1,1,male
EiW2l,14,15,fem_plain,mal_sws,3,slide,pencil,slide,slide,pencil,fem_plain_mal_sws,critical,4/5/2017,15:27,right,false,3024,1,2_1_2_1,word_1_word_2,far,pencil,Clear_After,lab,hanna,2014-11-11,,English,,,,1,1,male
EiW2l,15,8,fem_plain,mal_sws,1,wellyboots,fire_engine,fire_engine,wellyboots,fire_engine,fem_plain_mal_sws,critical,4/5/2017,15:27,right,false,3271,2,2_1_1_1,word_1_word_2,near,fire_engine,Clear_After,lab,hanna,2014-11-11,,English,,,,1,1,male
EiW2l,15,8,fem_plain,mal_sws,2,wellyboots,fire_engine,fire_engine,wellyboots,fire_engine,fem_plain_mal_sws,critical,4/5/2017,15:27,left,false,2803,2,2_1_1_1,word_1_word_2,near,wellyboots,Clear_After,lab,hanna,2014-11-11,,English,,,,1,1,male
EiW2l,15,8,fem_plain,mal_sws,3,wellyboots,fire_engine,fire_engine,wellyboots,fire_engine,fem_plain_mal_sws,critical,4/5/2017,15:27,right,true,4746,2,2_1_1_1,word_1_word_2,near,fire_engine,Clear_After,lab,hanna,2014-11-11,,English,,,,1,1,male
EiW2l,16,14,fem_plain,mal_sws,1,cheese,shoes,cheese,cheese,shoes,fem_plain_mal_sws,critical,4/5/2017,15:27,right,false,2710,2,2_1_2_1,word_1_word_2,far,shoes,Clear_After,lab,hanna,2014-11-11,,English,,,,1,1,male
EiW2l,16,14,fem_plain,mal_sws,2,cheese,shoes,cheese,cheese,shoes,fem_plain_mal_sws,critical,4/5/2017,15:27,left,false,3368,1,2_1_2_1,word_1_word_2,far,cheese,Clear_After,lab,hanna,2014-11-11,,English,,,,1,1,male
EiW2l,16,14,fem_plain,mal_sws,3,cheese,shoes,cheese,cheese,shoes,fem_plain_mal_sws,critical,4/5/2017,15:27,right,false,2409,1,2_1_2_1,word_1_word_2,far,shoes,Clear_After,lab,hanna,2014-11-11,,English,,,,1,1,male
EiW2l,17,20,fem_plain,mal_sws,1,jumper,rabbit,jumper,rabbit,jumper,fem_plain_mal_sws,critical,4/5/2017,15:27,right,true,3592,2,2_1_2_1,word_2_word_1,far,jumper,Clear_After,lab,hanna,2014-11-11,,English,,,,1,1,male
EiW2l,17,20,fem_plain,mal_sws,2,jumper,rabbit,jumper,rabbit,jumper,fem_plain_mal_sws,critical,4/5/2017,15:27,right,false,2640,2,2_1_2_1,word_2_word_1,far,jumper,Clear_After,lab,hanna,2014-11-11,,English,,,,1,1,male
EiW2l,17,20,fem_plain,mal_sws,3,jumper,rabbit,jumper,rabbit,jumper,fem_plain_mal_sws,critical,4/5/2017,15:27,left,false,2411,1,2_1_2_1,word_2_word_1,far,rabbit,Clear_After,lab,hanna,2014-11-11,,English,,,,1,1,male
EiW2l,18,12,fem_plain,mal_sws,1,yoghurt,foot,yoghurt,foot,yoghurt,fem_plain_mal_sws,critical,4/5/2017,15:27,right,true,3746,2,1_2_1_1,word_1_word_2,far,yoghurt,Clear_After,lab,hanna,2014-11-11,,English,,,,1,1,male
EiW2l,18,12,fem_plain,mal_sws,2,yoghurt,foot,yoghurt,foot,yoghurt,fem_plain_mal_sws,critical,4/5/2017,15:27,right,false,3377,2,1_2_1_1,word_1_word_2,far,yoghurt,Clear_After,lab,hanna,2014-11-11,,English,,,,1,1,male
EiW2l,18,12,fem_plain,mal_sws,3,yoghurt,foot,yoghurt,foot,yoghurt,fem_plain_mal_sws,critical,4/5/2017,15:27,left,false,2312,1,1_2_1_1,word_1_word_2,far,foot,Clear_After,lab,hanna,2014-11-11,,English,,,,1,1,male
EiW2l,19,11,fem_plain,mal_sws,1,book,lorry,lorry,book,lorry,fem_plain_mal_sws,critical,4/5/2017,15:27,right,false,2091,2,1_2_2_1,word_1_word_2,near,lorry,Clear_After,lab,hanna,2014-11-11,,English,,,,1,1,male
EiW2l,19,11,fem_plain,mal_sws,2,book,lorry,lorry,book,lorry,fem_plain_mal_sws,critical,4/5/2017,15:27,left,false,3061,1,1_2_2_1,word_1_word_2,near,book,Clear_After,lab,hanna,2014-11-11,,English,,,,1,1,male
EiW2l,19,11,fem_plain,mal_sws,3,book,lorry,lorry,book,lorry,fem_plain_mal_sws,critical,4/5/2017,15:27,right,true,2345,1,1_2_2_1,word_1_word_2,near,lorry,Clear_After,lab,hanna,2014-11-11,,English,,,,1,1,male
EiW2l,20,5,fem_plain,mal_sws,1,orange,car,car,car,orange,fem_plain_mal_sws,critical,4/5/2017,15:27,right,true,3680,2,1_2_2_1,word_2_word_1,near,orange,Clear_After,lab,hanna,2014-11-11,,English,,,,1,1,male
EiW2l,20,5,fem_plain,mal_sws,2,orange,car,car,car,orange,fem_plain_mal_sws,critical,4/5/2017,15:27,right,false,3470,1,1_2_2_1,word_2_word_1,near,orange,Clear_After,lab,hanna,2014-11-11,,English,,,,1,1,male
EiW2l,20,5,fem_plain,mal_sws,3,orange,car,car,car,orange,fem_plain_mal_sws,critical,4/5/2017,15:27,left,true,2444,1,1_2_2_1,word_2_word_1,near,car,Clear_After,lab,hanna,2014-11-11,,English,,,,1,1,male
EiW2l,21,3,fem_plain,mal_sws,1,nose,trousers,nose,nose,trousers,fem_plain_mal_sws,critical,4/5/2017,15:27,right,false,7568,2,1_2_1_1,word_2_word_1,far,trousers,Clear_After,lab,hanna,2014-11-11,,English,,,,1,1,male
EiW2l,21,3,fem_plain,mal_sws,2,nose,trousers,nose,nose,trousers,fem_plain_mal_sws,critical,4/5/2017,15:27,left,false,2919,1,1_2_1_1,word_2_word_1,far,nose,Clear_After,lab,hanna,2014-11-11,,English,,,,1,1,male
EiW2l,21,3,fem_plain,mal_sws,3,nose,trousers,nose,nose,trousers,fem_plain_mal_sws,critical,4/5/2017,15:27,right,false,2235,1,1_2_1_1,word_2_word_1,far,trousers,Clear_After,lab,hanna,2014-11-11,,English,,,,1,1,male
EiW2l,22,24,fem_plain,mal_sws,1,sink,fish,fish,sink,fish,fem_plain_mal_sws,critical,4/5/2017,15:27,right,false,6463,2,1_2_2_1,word_1_word_2,near,fish,Clear_After,lab,hanna,2014-11-11,,English,,,,1,1,male
EiW2l,22,24,fem_plain,mal_sws,2,sink,fish,fish,sink,fish,fem_plain_mal_sws,critical,4/5/2017,15:27,left,false,4088,1,1_2_2_1,word_1_word_2,near,sink,Clear_After,lab,hanna,2014-11-11,,English,,,,1,1,male
EiW2l,22,24,fem_plain,mal_sws,3,sink,fish,fish,sink,fish,fem_plain_mal_sws,critical,4/5/2017,15:27,right,true,3476,2,1_2_2_1,word_1_word_2,near,fish,Clear_After,lab,hanna,2014-11-11,,English,,,,1,1,male
EiW2l,23,2,fem_plain,mal_sws,1,chicken,bed,bed,bed,chicken,fem_plain_mal_sws,critical,4/5/2017,15:27,right,true,6298,2,2_1_1_1,word_1_word_2,near,chicken,Clear_After,lab,hanna,2014-11-11,,English,,,,1,1,male
EiW2l,23,2,fem_plain,mal_sws,2,chicken,bed,bed,bed,chicken,fem_plain_mal_sws,critical,4/5/2017,15:27,right,false,3343,1,2_1_1_1,word_1_word_2,near,chicken,Clear_After,lab,hanna,2014-11-11,,English,,,,1,1,male
EiW2l,23,2,fem_plain,mal_sws,3,chicken,bed,bed,bed,chicken,fem_plain_mal_sws,critical,4/5/2017,15:27,left,true,3292,1,2_1_1_1,word_1_word_2,near,bed,Clear_After,lab,hanna,2014-11-11,,English,,,,1,1,male
EiW2l,24,4,fem_plain,mal_sws,1,strawberry,coat,strawberry,strawberry,coat,fem_plain_mal_sws,critical,4/5/2017,15:27,right,false,4831,2,1_2_1_1,word_2_word_1,far,coat,Clear_After,lab,hanna,2014-11-11,,English,,,,1,1,male
EiW2l,24,4,fem_plain,mal_sws,2,strawberry,coat,strawberry,strawberry,coat,fem_plain_mal_sws,critical,4/5/2017,15:27,left,false,2452,1,1_2_1_1,word_2_word_1,far,strawberry,Clear_After,lab,hanna,2014-11-11,,English,,,,1,1,male
EiW2l,24,4,fem_plain,mal_sws,3,strawberry,coat,strawberry,strawberry,coat,fem_plain_mal_sws,critical,4/5/2017,15:27,right,false,3570,2,1_2_1_1,word_2_word_1,far,coat,Clear_After,lab,hanna,2014-11-11,,English,,,,1,1,male
EiW2l,25,18,fem_plain,mal_sws,1,ball,raspberry,ball,raspberry,ball,fem_plain_mal_sws,critical,4/5/2017,15:27,right,true,2128,2,1_2_1_1,word_2_word_1,far,ball,Clear_After,lab,hanna,2014-11-11,,English,,,,1,1,male
EiW2l,25,18,fem_plain,mal_sws,2,ball,raspberry,ball,raspberry,ball,fem_plain_mal_sws,critical,4/5/2017,15:27,left,true,1543,2,1_2_1_1,word_2_word_1,far,raspberry,Clear_After,lab,hanna,2014-11-11,,English,,,,1,1,male
EiW2l,25,18,fem_plain,mal_sws,3,ball,raspberry,ball,raspberry,ball,fem_plain_mal_sws,critical,4/5/2017,15:27,right,true,76,1,1_2_1_1,word_2_word_1,far,ball,Clear_After,lab,hanna,2014-11-11,,English,,,,1,1,male
