subject_id,trial_number,trial_id,plain,sws,instruction_number,sound1_item,sound2_item,sound3_item,left_image,right_image,sound_gender,trial_type,date_stamp,time_stamp,side_chosen,accuracy,rt,play_counter,order,pic_position,distance,chosen_pic,test_lang,testing_loc,tester,date_of_birth,ethnicity,native_lang,other_langs,parental_occ,dev_info,birth_order,num_siblings,gender
ES8qj,1,0,mal_plain,mal_sws,1,fireman,glasses,glasses,fireman,glasses,mal_plain_mal_sws,training,2/22/2017,11:59,left,true,2449,4,1_2_2_1,word_1_word_2,near,fireman,Clear_Before,museum,hanna,2012-07-22,,English,,,,,0,male
ES8qj,1,0,mal_plain,mal_sws,2,fireman,glasses,glasses,fireman,glasses,mal_plain_mal_sws,training,2/22/2017,11:59,right,true,1822,2,1_2_2_1,word_1_word_2,near,glasses,Clear_Before,museum,hanna,2012-07-22,,English,,,,,0,male
ES8qj,1,0,mal_plain,mal_sws,3,fireman,glasses,glasses,fireman,glasses,mal_plain_mal_sws,training,2/22/2017,11:59,right,true,6651,6,1_2_2_1,word_1_word_2,near,glasses,Clear_Before,museum,hanna,2012-07-22,,English,,,,,0,male
ES8qj,2,23,mal_plain,mal_sws,1,bath,teddy_bear,teddy_bear,teddy_bear,bath,mal_plain_mal_sws,critical,2/22/2017,11:59,right,true,3921,4,1_2_2_1,word_2_word_1,near,bath,Clear_Before,museum,hanna,2012-07-22,,English,,,,,0,male
ES8qj,2,23,mal_plain,mal_sws,2,bath,teddy_bear,teddy_bear,teddy_bear,bath,mal_plain_mal_sws,critical,2/22/2017,11:59,left,true,2235,2,1_2_2_1,word_2_word_1,near,teddy_bear,Clear_Before,museum,hanna,2012-07-22,,English,,,,,0,male
ES8qj,2,23,mal_plain,mal_sws,3,bath,teddy_bear,teddy_bear,teddy_bear,bath,mal_plain_mal_sws,critical,2/22/2017,11:59,left,true,20112,4,1_2_2_1,word_2_word_1,near,teddy_bear,Clear_Before,museum,hanna,2012-07-22,,English,,,,,0,male
ES8qj,3,17,mal_plain,mal_sws,1,cake,ambulance,cake,cake,ambulance,mal_plain_mal_sws,critical,2/22/2017,11:59,left,true,2043,2,1_2_1_1,word_1_word_2,far,cake,Clear_Before,museum,hanna,2012-07-22,,English,,,,,0,male
ES8qj,3,17,mal_plain,mal_sws,2,cake,ambulance,cake,cake,ambulance,mal_plain_mal_sws,critical,2/22/2017,11:59,right,true,2138,4,1_2_1_1,word_1_word_2,far,ambulance,Clear_Before,museum,hanna,2012-07-22,,English,,,,,0,male
ES8qj,3,17,mal_plain,mal_sws,3,cake,ambulance,cake,cake,ambulance,mal_plain_mal_sws,critical,2/22/2017,11:59,right,false,21470,4,1_2_1_1,word_1_word_2,far,ambulance,Clear_Before,museum,hanna,2012-07-22,,English,,,,,0,male
ES8qj,4,22,mal_plain,mal_sws,1,bike,dog,bike,dog,bike,mal_plain_mal_sws,critical,2/22/2017,11:59,right,true,2551,2,2_1_2_1,word_2_word_1,far,bike,Clear_Before,museum,hanna,2012-07-22,,English,,,,,0,male
ES8qj,4,22,mal_plain,mal_sws,2,bike,dog,bike,dog,bike,mal_plain_mal_sws,critical,2/22/2017,11:59,left,true,1744,1,2_1_2_1,word_2_word_1,far,dog,Clear_Before,museum,hanna,2012-07-22,,English,,,,,0,male
ES8qj,4,22,mal_plain,mal_sws,3,bike,dog,bike,dog,bike,mal_plain_mal_sws,critical,2/22/2017,11:59,right,true,5609,2,2_1_2_1,word_2_word_1,far,bike,Clear_Before,museum,hanna,2012-07-22,,English,,,,,0,male
ES8qj,5,2,mal_plain,mal_sws,1,chicken,bed,bed,chicken,bed,mal_plain_mal_sws,critical,2/22/2017,11:59,left,true,2822,2,2_1_1_1,word_2_word_1,near,chicken,Clear_Before,museum,hanna,2012-07-22,,English,,,,,0,male
ES8qj,5,2,mal_plain,mal_sws,2,chicken,bed,bed,chicken,bed,mal_plain_mal_sws,critical,2/22/2017,11:59,right,true,2222,2,2_1_1_1,word_2_word_1,near,bed,Clear_Before,museum,hanna,2012-07-22,,English,,,,,0,male
ES8qj,5,2,mal_plain,mal_sws,3,chicken,bed,bed,chicken,bed,mal_plain_mal_sws,critical,2/22/2017,11:59,left,false,4470,2,2_1_1_1,word_2_word_1,near,chicken,Clear_Before,museum,hanna,2012-07-22,,English,,,,,0,male
ES8qj,6,11,mal_plain,mal_sws,1,book,lorry,lorry,lorry,book,mal_plain_mal_sws,critical,2/22/2017,11:59,right,true,3458,4,2_1_1_1,word_2_word_1,near,book,Clear_Before,museum,hanna,2012-07-22,,English,,,,,0,male
ES8qj,6,11,mal_plain,mal_sws,2,book,lorry,lorry,lorry,book,mal_plain_mal_sws,critical,2/22/2017,11:59,left,true,2253,2,2_1_1_1,word_2_word_1,near,lorry,Clear_Before,museum,hanna,2012-07-22,,English,,,,,0,male
ES8qj,6,11,mal_plain,mal_sws,3,book,lorry,lorry,lorry,book,mal_plain_mal_sws,critical,2/22/2017,11:59,left,true,6776,2,2_1_1_1,word_2_word_1,near,lorry,Clear_Before,museum,hanna,2012-07-22,,English,,,,,0,male
ES8qj,7,1,mal_plain,mal_sws,1,baby,spoon,baby,spoon,baby,mal_plain_mal_sws,critical,2/22/2017,11:59,right,true,2423,2,1_2_1_1,word_1_word_2,far,baby,Clear_Before,museum,hanna,2012-07-22,,English,,,,,0,male
ES8qj,7,1,mal_plain,mal_sws,2,baby,spoon,baby,spoon,baby,mal_plain_mal_sws,critical,2/22/2017,11:59,left,true,1660,2,1_2_1_1,word_1_word_2,far,spoon,Clear_Before,museum,hanna,2012-07-22,,English,,,,,0,male
ES8qj,7,1,mal_plain,mal_sws,3,baby,spoon,baby,spoon,baby,mal_plain_mal_sws,critical,2/22/2017,11:59,right,true,4840,2,1_2_1_1,word_1_word_2,far,baby,Clear_Before,museum,hanna,2012-07-22,,English,,,,,0,male
ES8qj,8,8,mal_plain,mal_sws,1,wellyboots,fire_engine,wellyboots,fire_engine,wellyboots,mal_plain_mal_sws,critical,2/22/2017,11:59,right,true,2796,2,2_1_2_1,word_2_word_1,far,wellyboots,Clear_Before,museum,hanna,2012-07-22,,English,,,,,0,male
ES8qj,8,8,mal_plain,mal_sws,2,wellyboots,fire_engine,wellyboots,fire_engine,wellyboots,mal_plain_mal_sws,critical,2/22/2017,11:59,left,true,3169,1,2_1_2_1,word_2_word_1,far,fire_engine,Clear_Before,museum,hanna,2012-07-22,,English,,,,,0,male
ES8qj,8,8,mal_plain,mal_sws,3,wellyboots,fire_engine,wellyboots,fire_engine,wellyboots,mal_plain_mal_sws,critical,2/22/2017,11:59,left,false,5657,2,2_1_2_1,word_2_word_1,far,fire_engine,Clear_Before,museum,hanna,2012-07-22,,English,,,,,0,male
ES8qj,9,20,mal_plain,mal_sws,1,rabbit,jumper,jumper,jumper,rabbit,mal_plain_mal_sws,critical,2/22/2017,11:59,right,true,2222,2,2_1_1_1,word_1_word_2,near,rabbit,Clear_Before,museum,hanna,2012-07-22,,English,,,,,0,male
ES8qj,9,20,mal_plain,mal_sws,2,rabbit,jumper,jumper,jumper,rabbit,mal_plain_mal_sws,critical,2/22/2017,11:59,left,true,1860,2,2_1_1_1,word_1_word_2,near,jumper,Clear_Before,museum,hanna,2012-07-22,,English,,,,,0,male
ES8qj,9,20,mal_plain,mal_sws,3,rabbit,jumper,jumper,jumper,rabbit,mal_plain_mal_sws,critical,2/22/2017,11:59,left,true,4078,2,2_1_1_1,word_1_word_2,near,jumper,Clear_Before,museum,hanna,2012-07-22,,English,,,,,0,male
ES8qj,10,24,mal_plain,mal_sws,1,sink,fish,sink,fish,sink,mal_plain_mal_sws,critical,2/22/2017,11:59,right,true,3174,2,1_2_1_1,word_2_word_1,far,sink,Clear_Before,museum,hanna,2012-07-22,,English,,,,,0,male
ES8qj,10,24,mal_plain,mal_sws,2,sink,fish,sink,fish,sink,mal_plain_mal_sws,critical,2/22/2017,11:59,left,true,2170,2,1_2_1_1,word_2_word_1,far,fish,Clear_Before,museum,hanna,2012-07-22,,English,,,,,0,male
ES8qj,10,24,mal_plain,mal_sws,3,sink,fish,sink,fish,sink,mal_plain_mal_sws,critical,2/22/2017,11:59,right,true,3492,2,1_2_1_1,word_2_word_1,far,sink,Clear_Before,museum,hanna,2012-07-22,,English,,,,,0,male
ES8qj,11,16,mal_plain,mal_sws,1,paintbrush,banana,banana,paintbrush,banana,mal_plain_mal_sws,critical,2/22/2017,11:59,left,true,2817,2,1_2_2_1,word_1_word_2,near,paintbrush,Clear_Before,museum,hanna,2012-07-22,,English,,,,,0,male
ES8qj,11,16,mal_plain,mal_sws,2,paintbrush,banana,banana,paintbrush,banana,mal_plain_mal_sws,critical,2/22/2017,11:59,right,true,1948,1,1_2_2_1,word_1_word_2,near,banana,Clear_Before,museum,hanna,2012-07-22,,English,,,,,0,male
ES8qj,11,16,mal_plain,mal_sws,3,paintbrush,banana,banana,paintbrush,banana,mal_plain_mal_sws,critical,2/22/2017,11:59,left,false,3641,1,1_2_2_1,word_1_word_2,near,paintbrush,Clear_Before,museum,hanna,2012-07-22,,English,,,,,0,male
ES8qj,12,12,mal_plain,mal_sws,1,foot,yoghurt,yoghurt,yoghurt,foot,mal_plain_mal_sws,critical,2/22/2017,11:59,right,true,2652,2,1_2_2_1,word_2_word_1,near,foot,Clear_Before,museum,hanna,2012-07-22,,English,,,,,0,male
ES8qj,12,12,mal_plain,mal_sws,2,foot,yoghurt,yoghurt,yoghurt,foot,mal_plain_mal_sws,critical,2/22/2017,11:59,left,true,2079,1,1_2_2_1,word_2_word_1,near,yoghurt,Clear_Before,museum,hanna,2012-07-22,,English,,,,,0,male
ES8qj,12,12,mal_plain,mal_sws,3,foot,yoghurt,yoghurt,yoghurt,foot,mal_plain_mal_sws,critical,2/22/2017,11:59,right,false,1923,2,1_2_2_1,word_2_word_1,near,foot,Clear_Before,museum,hanna,2012-07-22,,English,,,,,0,male
ES8qj,13,10,mal_plain,mal_sws,1,tshirt,pig,pig,pig,tshirt,mal_plain_mal_sws,critical,2/22/2017,11:59,right,true,3490,2,2_1_1_1,word_1_word_2,near,tshirt,Clear_Before,museum,hanna,2012-07-22,,English,,,,,0,male
ES8qj,13,10,mal_plain,mal_sws,2,tshirt,pig,pig,pig,tshirt,mal_plain_mal_sws,critical,2/22/2017,11:59,left,true,2142,1,2_1_1_1,word_1_word_2,near,pig,Clear_Before,museum,hanna,2012-07-22,,English,,,,,0,male
ES8qj,13,10,mal_plain,mal_sws,3,tshirt,pig,pig,pig,tshirt,mal_plain_mal_sws,critical,2/22/2017,11:59,right,false,4478,2,2_1_1_1,word_1_word_2,near,tshirt,Clear_Before,museum,hanna,2012-07-22,,English,,,,,0,male
ES8qj,14,9,mal_plain,mal_sws,1,window,pizza,pizza,window,pizza,mal_plain_mal_sws,critical,2/22/2017,11:59,left,true,2157,2,2_1_1_1,word_2_word_1,near,window,Clear_Before,museum,hanna,2012-07-22,,English,,,,,0,male
ES8qj,14,9,mal_plain,mal_sws,2,window,pizza,pizza,window,pizza,mal_plain_mal_sws,critical,2/22/2017,11:59,right,true,3110,2,2_1_1_1,word_2_word_1,near,pizza,Clear_Before,museum,hanna,2012-07-22,,English,,,,,0,male
ES8qj,14,9,mal_plain,mal_sws,3,window,pizza,pizza,window,pizza,mal_plain_mal_sws,critical,2/22/2017,11:59,left,false,3188,2,2_1_1_1,word_2_word_1,near,window,Clear_Before,museum,hanna,2012-07-22,,English,,,,,0,male
ES8qj,15,14,mal_plain,mal_sws,1,cheese,shoes,cheese,cheese,shoes,mal_plain_mal_sws,critical,2/22/2017,11:59,left,true,2704,2,1_2_1_1,word_1_word_2,far,cheese,Clear_Before,museum,hanna,2012-07-22,,English,,,,,0,male
ES8qj,15,14,mal_plain,mal_sws,2,cheese,shoes,cheese,cheese,shoes,mal_plain_mal_sws,critical,2/22/2017,11:59,right,true,1650,1,1_2_1_1,word_1_word_2,far,shoes,Clear_Before,museum,hanna,2012-07-22,,English,,,,,0,male
ES8qj,15,14,mal_plain,mal_sws,3,cheese,shoes,cheese,cheese,shoes,mal_plain_mal_sws,critical,2/22/2017,11:59,right,false,3827,2,1_2_1_1,word_1_word_2,far,shoes,Clear_Before,museum,hanna,2012-07-22,,English,,,,,0,male
ES8qj,16,5,mal_plain,mal_sws,1,car,orange,orange,car,orange,mal_plain_mal_sws,critical,2/22/2017,11:59,left,true,2358,2,1_2_2_1,word_2_word_1,near,car,Clear_Before,museum,hanna,2012-07-22,,English,,,,,0,male
ES8qj,16,5,mal_plain,mal_sws,2,car,orange,orange,car,orange,mal_plain_mal_sws,critical,2/22/2017,11:59,right,true,1765,1,1_2_2_1,word_2_word_1,near,orange,Clear_Before,museum,hanna,2012-07-22,,English,,,,,0,male
ES8qj,16,5,mal_plain,mal_sws,3,car,orange,orange,car,orange,mal_plain_mal_sws,critical,2/22/2017,11:59,right,true,4454,2,1_2_2_1,word_2_word_1,near,orange,Clear_Before,museum,hanna,2012-07-22,,English,,,,,0,male
ES8qj,17,4,mal_plain,mal_sws,1,strawberry,coat,strawberry,coat,strawberry,mal_plain_mal_sws,critical,2/22/2017,11:59,right,true,2334,2,2_1_2_1,word_1_word_2,far,strawberry,Clear_Before,museum,hanna,2012-07-22,,English,,,,,0,male
ES8qj,17,4,mal_plain,mal_sws,2,strawberry,coat,strawberry,coat,strawberry,mal_plain_mal_sws,critical,2/22/2017,11:59,left,true,1817,1,2_1_2_1,word_1_word_2,far,coat,Clear_Before,museum,hanna,2012-07-22,,English,,,,,0,male
ES8qj,17,4,mal_plain,mal_sws,3,strawberry,coat,strawberry,coat,strawberry,mal_plain_mal_sws,critical,2/22/2017,11:59,left,false,7224,2,2_1_2_1,word_1_word_2,far,coat,Clear_Before,museum,hanna,2012-07-22,,English,,,,,0,male
ES8qj,18,3,mal_plain,mal_sws,1,nose,trousers,nose,nose,trousers,mal_plain_mal_sws,critical,2/22/2017,11:59,left,true,7291,2,1_2_1_1,word_2_word_1,far,nose,Clear_Before,museum,hanna,2012-07-22,,English,,,,,0,male
ES8qj,18,3,mal_plain,mal_sws,2,nose,trousers,nose,nose,trousers,mal_plain_mal_sws,critical,2/22/2017,11:59,left,false,2640,2,1_2_1_1,word_2_word_1,far,nose,Clear_Before,museum,hanna,2012-07-22,,English,,,,,0,male
ES8qj,18,3,mal_plain,mal_sws,3,nose,trousers,nose,nose,trousers,mal_plain_mal_sws,critical,2/22/2017,11:59,right,false,1957,1,1_2_1_1,word_2_word_1,far,trousers,Clear_Before,museum,hanna,2012-07-22,,English,,,,,0,male
ES8qj,19,13,mal_plain,mal_sws,1,airplane,toothbrush,toothbrush,airplane,toothbrush,mal_plain_mal_sws,critical,2/22/2017,11:59,left,true,4115,2,1_2_2_1,word_2_word_1,near,airplane,Clear_Before,museum,hanna,2012-07-22,,English,,,,,0,male
ES8qj,19,13,mal_plain,mal_sws,2,airplane,toothbrush,toothbrush,airplane,toothbrush,mal_plain_mal_sws,critical,2/22/2017,11:59,left,false,2231,4,1_2_2_1,word_2_word_1,near,airplane,Clear_Before,museum,hanna,2012-07-22,,English,,,,,0,male
ES8qj,19,13,mal_plain,mal_sws,3,airplane,toothbrush,toothbrush,airplane,toothbrush,mal_plain_mal_sws,critical,2/22/2017,11:59,right,true,2022,2,1_2_2_1,word_2_word_1,near,toothbrush,Clear_Before,museum,hanna,2012-07-22,,English,,,,,0,male
ES8qj,20,6,mal_plain,mal_sws,1,peas,bird,peas,bird,peas,mal_plain_mal_sws,critical,2/22/2017,11:59,right,true,2688,2,2_1_2_1,word_1_word_2,far,peas,Clear_Before,museum,hanna,2012-07-22,,English,,,,,0,male
ES8qj,20,6,mal_plain,mal_sws,2,peas,bird,peas,bird,peas,mal_plain_mal_sws,critical,2/22/2017,11:59,right,false,2702,2,2_1_2_1,word_1_word_2,far,peas,Clear_Before,museum,hanna,2012-07-22,,English,,,,,0,male
ES8qj,20,6,mal_plain,mal_sws,3,peas,bird,peas,bird,peas,mal_plain_mal_sws,critical,2/22/2017,11:59,left,false,1863,2,2_1_2_1,word_1_word_2,far,bird,Clear_Before,museum,hanna,2012-07-22,,English,,,,,0,male
ES8qj,21,19,mal_plain,mal_sws,1,building_blocks,santa,building_blocks,santa,building_blocks,mal_plain_mal_sws,critical,2/22/2017,11:59,right,true,3775,2,2_1_2_1,word_1_word_2,far,building_blocks,Clear_Before,museum,hanna,2012-07-22,,English,,,,,0,male
ES8qj,21,19,mal_plain,mal_sws,2,building_blocks,santa,building_blocks,santa,building_blocks,mal_plain_mal_sws,critical,2/22/2017,11:59,right,false,2596,2,2_1_2_1,word_1_word_2,far,building_blocks,Clear_Before,museum,hanna,2012-07-22,,English,,,,,0,male
ES8qj,21,19,mal_plain,mal_sws,3,building_blocks,santa,building_blocks,santa,building_blocks,mal_plain_mal_sws,critical,2/22/2017,11:59,left,false,2651,2,2_1_2_1,word_1_word_2,far,santa,Clear_Before,museum,hanna,2012-07-22,,English,,,,,0,male
ES8qj,22,21,mal_plain,mal_sws,1,sheep,frog,frog,sheep,frog,mal_plain_mal_sws,critical,2/22/2017,11:59,right,false,3914,2,2_1_1_1,word_2_word_1,near,frog,Clear_Before,museum,hanna,2012-07-22,,English,,,,,0,male
ES8qj,22,21,mal_plain,mal_sws,2,sheep,frog,frog,sheep,frog,mal_plain_mal_sws,critical,2/22/2017,11:59,left,false,2359,2,2_1_1_1,word_2_word_1,near,sheep,Clear_Before,museum,hanna,2012-07-22,,English,,,,,0,male
ES8qj,22,21,mal_plain,mal_sws,3,sheep,frog,frog,sheep,frog,mal_plain_mal_sws,critical,2/22/2017,11:59,right,true,4212,2,2_1_1_1,word_2_word_1,near,frog,Clear_Before,museum,hanna,2012-07-22,,English,,,,,0,male
ES8qj,23,15,mal_plain,mal_sws,1,slide,pencil,slide,slide,pencil,mal_plain_mal_sws,critical,2/22/2017,11:59,right,false,3956,2,1_2_1_1,word_1_word_2,far,pencil,Clear_Before,museum,hanna,2012-07-22,,English,,,,,0,male
ES8qj,23,15,mal_plain,mal_sws,2,slide,pencil,slide,slide,pencil,mal_plain_mal_sws,critical,2/22/2017,11:59,left,false,2501,1,1_2_1_1,word_1_word_2,far,slide,Clear_Before,museum,hanna,2012-07-22,,English,,,,,0,male
ES8qj,23,15,mal_plain,mal_sws,3,slide,pencil,slide,slide,pencil,mal_plain_mal_sws,critical,2/22/2017,11:59,right,false,2623,1,1_2_1_1,word_1_word_2,far,pencil,Clear_Before,museum,hanna,2012-07-22,,English,,,,,0,male
ES8qj,24,18,mal_plain,mal_sws,1,ball,raspberry,ball,ball,raspberry,mal_plain_mal_sws,critical,2/22/2017,11:59,left,true,3514,2,2_1_2_1,word_1_word_2,far,ball,Clear_Before,museum,hanna,2012-07-22,,English,,,,,0,male
ES8qj,24,18,mal_plain,mal_sws,2,ball,raspberry,ball,ball,raspberry,mal_plain_mal_sws,critical,2/22/2017,11:59,left,false,2689,2,2_1_2_1,word_1_word_2,far,ball,Clear_Before,museum,hanna,2012-07-22,,English,,,,,0,male
ES8qj,24,18,mal_plain,mal_sws,3,ball,raspberry,ball,ball,raspberry,mal_plain_mal_sws,critical,2/22/2017,11:59,right,false,2707,2,2_1_2_1,word_1_word_2,far,raspberry,Clear_Before,museum,hanna,2012-07-22,,English,,,,,0,male
ES8qj,25,7,mal_plain,mal_sws,1,horse,lolly,horse,lolly,horse,mal_plain_mal_sws,critical,2/22/2017,11:59,left,false,4463,2,1_2_1_1,word_1_word_2,far,lolly,Clear_Before,museum,hanna,2012-07-22,,English,,,,,0,male
ES8qj,25,7,mal_plain,mal_sws,2,horse,lolly,horse,lolly,horse,mal_plain_mal_sws,critical,2/22/2017,11:59,right,false,3029,1,1_2_1_1,word_1_word_2,far,horse,Clear_Before,museum,hanna,2012-07-22,,English,,,,,0,male
ES8qj,25,7,mal_plain,mal_sws,3,horse,lolly,horse,lolly,horse,mal_plain_mal_sws,critical,2/22/2017,11:59,left,false,2816,2,1_2_1_1,word_1_word_2,far,lolly,Clear_Before,museum,hanna,2012-07-22,,English,,,,,0,male
