subject_id,trial_number,trial_id,plain,sws,instruction_number,sound1_item,sound2_item,sound3_item,left_image,right_image,sound_gender,trial_type,date_stamp,time_stamp,side_chosen,accuracy,rt,play_counter,order,pic_position,distance,chosen_pic,test_lang,testing_loc,tester,date_of_birth,ethnicity,native_lang,other_langs,parental_occ,dev_info,birth_order,num_siblings,gender
EySOE,1,0,fem_plain,fem_sws,1,glasses,fireman,glasses,fireman,glasses,fem_plain_fem_sws,training,3/9/2017,14:25,right,true,9617,6,2_1_2_1,word_1_word_2,far,glasses,Clear_After,preschool,hanna,2013-01-29,,English,,,,2,1,male
EySOE,1,0,fem_plain,fem_sws,2,glasses,fireman,glasses,fireman,glasses,fem_plain_fem_sws,training,3/9/2017,14:25,right,false,3232,2,2_1_2_1,word_1_word_2,far,glasses,Clear_After,preschool,hanna,2013-01-29,,English,,,,2,1,male
EySOE,1,0,fem_plain,fem_sws,3,glasses,fireman,glasses,fireman,glasses,fem_plain_fem_sws,training,3/9/2017,14:25,left,false,3096,1,2_1_2_1,word_1_word_2,far,fireman,Clear_After,preschool,hanna,2013-01-29,,English,,,,2,1,male
EySOE,2,21,fem_plain,fem_sws,1,sheep,frog,sheep,sheep,frog,fem_plain_fem_sws,critical,3/9/2017,14:25,left,true,4864,4,1_2_1_1,word_2_word_1,far,sheep,Clear_After,preschool,hanna,2013-01-29,,English,,,,2,1,male
EySOE,2,21,fem_plain,fem_sws,2,sheep,frog,sheep,sheep,frog,fem_plain_fem_sws,critical,3/9/2017,14:25,left,false,2380,2,1_2_1_1,word_2_word_1,far,sheep,Clear_After,preschool,hanna,2013-01-29,,English,,,,2,1,male
EySOE,2,21,fem_plain,fem_sws,3,sheep,frog,sheep,sheep,frog,fem_plain_fem_sws,critical,3/9/2017,14:25,right,false,3374,1,1_2_1_1,word_2_word_1,far,frog,Clear_After,preschool,hanna,2013-01-29,,English,,,,2,1,male
EySOE,3,12,fem_plain,fem_sws,1,yoghurt,foot,yoghurt,yoghurt,foot,fem_plain_fem_sws,critical,3/9/2017,14:25,left,true,4115,2,1_2_1_1,word_2_word_1,far,yoghurt,Clear_After,preschool,hanna,2013-01-29,,English,,,,2,1,male
EySOE,3,12,fem_plain,fem_sws,2,yoghurt,foot,yoghurt,yoghurt,foot,fem_plain_fem_sws,critical,3/9/2017,14:25,left,false,2575,2,1_2_1_1,word_2_word_1,far,yoghurt,Clear_After,preschool,hanna,2013-01-29,,English,,,,2,1,male
EySOE,3,12,fem_plain,fem_sws,3,yoghurt,foot,yoghurt,yoghurt,foot,fem_plain_fem_sws,critical,3/9/2017,14:25,right,false,2128,1,1_2_1_1,word_2_word_1,far,foot,Clear_After,preschool,hanna,2013-01-29,,English,,,,2,1,male
EySOE,4,20,fem_plain,fem_sws,1,rabbit,jumper,rabbit,jumper,rabbit,fem_plain_fem_sws,critical,3/9/2017,14:25,left,false,2637,2,2_1_2_1,word_1_word_2,far,jumper,Clear_After,preschool,hanna,2013-01-29,,English,,,,2,1,male
EySOE,4,20,fem_plain,fem_sws,2,rabbit,jumper,rabbit,jumper,rabbit,fem_plain_fem_sws,critical,3/9/2017,14:25,right,false,2141,2,2_1_2_1,word_1_word_2,far,rabbit,Clear_After,preschool,hanna,2013-01-29,,English,,,,2,1,male
EySOE,4,20,fem_plain,fem_sws,3,rabbit,jumper,rabbit,jumper,rabbit,fem_plain_fem_sws,critical,3/9/2017,14:25,left,false,1752,1,2_1_2_1,word_1_word_2,far,jumper,Clear_After,preschool,hanna,2013-01-29,,English,,,,2,1,male
EySOE,5,24,fem_plain,fem_sws,1,sink,fish,sink,sink,fish,fem_plain_fem_sws,critical,3/9/2017,14:25,right,false,12076,4,1_2_1_1,word_1_word_2,far,fish,Clear_After,preschool,hanna,2013-01-29,,English,,,,2,1,male
EySOE,5,24,fem_plain,fem_sws,2,sink,fish,sink,sink,fish,fem_plain_fem_sws,critical,3/9/2017,14:25,left,false,3004,2,1_2_1_1,word_1_word_2,far,sink,Clear_After,preschool,hanna,2013-01-29,,English,,,,2,1,male
EySOE,5,24,fem_plain,fem_sws,3,sink,fish,sink,sink,fish,fem_plain_fem_sws,critical,3/9/2017,14:25,right,false,2437,2,1_2_1_1,word_1_word_2,far,fish,Clear_After,preschool,hanna,2013-01-29,,English,,,,2,1,male
EySOE,6,9,fem_plain,fem_sws,1,pizza,window,window,window,pizza,fem_plain_fem_sws,critical,3/9/2017,14:25,left,false,3949,2,1_2_2_1,word_2_word_1,near,window,Clear_After,preschool,hanna,2013-01-29,,English,,,,2,1,male
EySOE,6,9,fem_plain,fem_sws,2,pizza,window,window,window,pizza,fem_plain_fem_sws,critical,3/9/2017,14:25,right,false,2417,2,1_2_2_1,word_2_word_1,near,pizza,Clear_After,preschool,hanna,2013-01-29,,English,,,,2,1,male
EySOE,6,9,fem_plain,fem_sws,3,pizza,window,window,window,pizza,fem_plain_fem_sws,critical,3/9/2017,14:25,left,true,3061,2,1_2_2_1,word_2_word_1,near,window,Clear_After,preschool,hanna,2013-01-29,,English,,,,2,1,male
EySOE,7,13,fem_plain,fem_sws,1,toothbrush,airplane,airplane,airplane,toothbrush,fem_plain_fem_sws,critical,3/9/2017,14:25,left,false,3310,4,1_2_2_1,word_2_word_1,near,airplane,Clear_After,preschool,hanna,2013-01-29,,English,,,,2,1,male
EySOE,7,13,fem_plain,fem_sws,2,toothbrush,airplane,airplane,airplane,toothbrush,fem_plain_fem_sws,critical,3/9/2017,14:25,right,false,2331,2,1_2_2_1,word_2_word_1,near,toothbrush,Clear_After,preschool,hanna,2013-01-29,,English,,,,2,1,male
EySOE,7,13,fem_plain,fem_sws,3,toothbrush,airplane,airplane,airplane,toothbrush,fem_plain_fem_sws,critical,3/9/2017,14:25,left,true,1838,1,1_2_2_1,word_2_word_1,near,airplane,Clear_After,preschool,hanna,2013-01-29,,English,,,,2,1,male
EySOE,8,6,fem_plain,fem_sws,1,bird,peas,bird,peas,bird,fem_plain_fem_sws,critical,3/9/2017,14:25,right,true,5674,2,1_2_1_1,word_2_word_1,far,bird,Clear_After,preschool,hanna,2013-01-29,,English,,,,2,1,male
EySOE,8,6,fem_plain,fem_sws,2,bird,peas,bird,peas,bird,fem_plain_fem_sws,critical,3/9/2017,14:25,right,false,2937,1,1_2_1_1,word_2_word_1,far,bird,Clear_After,preschool,hanna,2013-01-29,,English,,,,2,1,male
EySOE,8,6,fem_plain,fem_sws,3,bird,peas,bird,peas,bird,fem_plain_fem_sws,critical,3/9/2017,14:25,left,false,3281,1,1_2_1_1,word_2_word_1,far,peas,Clear_After,preschool,hanna,2013-01-29,,English,,,,2,1,male
EySOE,9,18,fem_plain,fem_sws,1,raspberry,ball,ball,raspberry,ball,fem_plain_fem_sws,critical,3/9/2017,14:25,right,false,4525,2,2_1_1_1,word_2_word_1,near,ball,Clear_After,preschool,hanna,2013-01-29,,English,,,,2,1,male
EySOE,9,18,fem_plain,fem_sws,2,raspberry,ball,ball,raspberry,ball,fem_plain_fem_sws,critical,3/9/2017,14:25,left,false,3178,2,2_1_1_1,word_2_word_1,near,raspberry,Clear_After,preschool,hanna,2013-01-29,,English,,,,2,1,male
EySOE,9,18,fem_plain,fem_sws,3,raspberry,ball,ball,raspberry,ball,fem_plain_fem_sws,critical,3/9/2017,14:25,right,true,2444,1,2_1_1_1,word_2_word_1,near,ball,Clear_After,preschool,hanna,2013-01-29,,English,,,,2,1,male
EySOE,10,1,fem_plain,fem_sws,1,baby,spoon,spoon,spoon,baby,fem_plain_fem_sws,critical,3/9/2017,14:25,left,false,8563,2,1_2_2_1,word_1_word_2,near,spoon,Clear_After,preschool,hanna,2013-01-29,,English,,,,2,1,male
EySOE,10,1,fem_plain,fem_sws,2,baby,spoon,spoon,spoon,baby,fem_plain_fem_sws,critical,3/9/2017,14:25,right,false,2429,2,1_2_2_1,word_1_word_2,near,baby,Clear_After,preschool,hanna,2013-01-29,,English,,,,2,1,male
EySOE,10,1,fem_plain,fem_sws,3,baby,spoon,spoon,spoon,baby,fem_plain_fem_sws,critical,3/9/2017,14:25,left,true,2182,2,1_2_2_1,word_1_word_2,near,spoon,Clear_After,preschool,hanna,2013-01-29,,English,,,,2,1,male
EySOE,11,3,fem_plain,fem_sws,1,trousers,nose,nose,trousers,nose,fem_plain_fem_sws,critical,3/9/2017,14:25,left,true,10743,2,2_1_1_1,word_1_word_2,near,trousers,Clear_After,preschool,hanna,2013-01-29,,English,,,,2,1,male
EySOE,11,3,fem_plain,fem_sws,2,trousers,nose,nose,trousers,nose,fem_plain_fem_sws,critical,3/9/2017,14:25,left,false,2727,2,2_1_1_1,word_1_word_2,near,trousers,Clear_After,preschool,hanna,2013-01-29,,English,,,,2,1,male
EySOE,11,3,fem_plain,fem_sws,3,trousers,nose,nose,trousers,nose,fem_plain_fem_sws,critical,3/9/2017,14:25,right,true,2707,2,2_1_1_1,word_1_word_2,near,nose,Clear_After,preschool,hanna,2013-01-29,,English,,,,2,1,male
EySOE,12,4,fem_plain,fem_sws,1,strawberry,coat,coat,strawberry,coat,fem_plain_fem_sws,critical,3/9/2017,14:25,left,true,8646,2,1_2_2_1,word_2_word_1,near,strawberry,Clear_After,preschool,hanna,2013-01-29,,English,,,,2,1,male
EySOE,12,4,fem_plain,fem_sws,2,strawberry,coat,coat,strawberry,coat,fem_plain_fem_sws,critical,3/9/2017,14:25,left,false,2190,2,1_2_2_1,word_2_word_1,near,strawberry,Clear_After,preschool,hanna,2013-01-29,,English,,,,2,1,male
EySOE,12,4,fem_plain,fem_sws,3,strawberry,coat,coat,strawberry,coat,fem_plain_fem_sws,critical,3/9/2017,14:25,right,true,1914,2,1_2_2_1,word_2_word_1,near,coat,Clear_After,preschool,hanna,2013-01-29,,English,,,,2,1,male
EySOE,13,17,fem_plain,fem_sws,1,ambulance,cake,ambulance,ambulance,cake,fem_plain_fem_sws,critical,3/9/2017,14:25,left,true,7632,4,1_2_1_1,word_2_word_1,far,ambulance,Clear_After,preschool,hanna,2013-01-29,,English,,,,2,1,male
EySOE,13,17,fem_plain,fem_sws,2,ambulance,cake,ambulance,ambulance,cake,fem_plain_fem_sws,critical,3/9/2017,14:25,left,false,1996,1,1_2_1_1,word_2_word_1,far,ambulance,Clear_After,preschool,hanna,2013-01-29,,English,,,,2,1,male
EySOE,13,17,fem_plain,fem_sws,3,ambulance,cake,ambulance,ambulance,cake,fem_plain_fem_sws,critical,3/9/2017,14:25,right,false,2064,2,1_2_1_1,word_2_word_1,far,cake,Clear_After,preschool,hanna,2013-01-29,,English,,,,2,1,male
EySOE,14,2,fem_plain,fem_sws,1,bed,chicken,bed,chicken,bed,fem_plain_fem_sws,critical,3/9/2017,14:25,right,true,5213,2,2_1_2_1,word_2_word_1,far,bed,Clear_After,preschool,hanna,2013-01-29,,English,,,,2,1,male
EySOE,14,2,fem_plain,fem_sws,2,bed,chicken,bed,chicken,bed,fem_plain_fem_sws,critical,3/9/2017,14:25,right,false,3489,2,2_1_2_1,word_2_word_1,far,bed,Clear_After,preschool,hanna,2013-01-29,,English,,,,2,1,male
EySOE,14,2,fem_plain,fem_sws,3,bed,chicken,bed,chicken,bed,fem_plain_fem_sws,critical,3/9/2017,14:25,left,false,3770,1,2_1_2_1,word_2_word_1,far,chicken,Clear_After,preschool,hanna,2013-01-29,,English,,,,2,1,male
EySOE,15,19,fem_plain,fem_sws,1,building_blocks,santa,santa,santa,building_blocks,fem_plain_fem_sws,critical,3/9/2017,14:25,left,false,5583,2,2_1_1_1,word_1_word_2,near,santa,Clear_After,preschool,hanna,2013-01-29,,English,,,,2,1,male
EySOE,15,19,fem_plain,fem_sws,2,building_blocks,santa,santa,santa,building_blocks,fem_plain_fem_sws,critical,3/9/2017,14:25,right,false,2313,2,2_1_1_1,word_1_word_2,near,building_blocks,Clear_After,preschool,hanna,2013-01-29,,English,,,,2,1,male
EySOE,15,19,fem_plain,fem_sws,3,building_blocks,santa,santa,santa,building_blocks,fem_plain_fem_sws,critical,3/9/2017,14:25,left,true,4621,2,2_1_1_1,word_1_word_2,near,santa,Clear_After,preschool,hanna,2013-01-29,,English,,,,2,1,male
EySOE,16,5,fem_plain,fem_sws,1,car,orange,orange,orange,car,fem_plain_fem_sws,critical,3/9/2017,14:25,left,false,3661,2,2_1_1_1,word_1_word_2,near,orange,Clear_After,preschool,hanna,2013-01-29,,English,,,,2,1,male
EySOE,16,5,fem_plain,fem_sws,2,car,orange,orange,orange,car,fem_plain_fem_sws,critical,3/9/2017,14:25,right,false,2191,1,2_1_1_1,word_1_word_2,near,car,Clear_After,preschool,hanna,2013-01-29,,English,,,,2,1,male
EySOE,16,5,fem_plain,fem_sws,3,car,orange,orange,orange,car,fem_plain_fem_sws,critical,3/9/2017,14:25,left,true,2580,1,2_1_1_1,word_1_word_2,near,orange,Clear_After,preschool,hanna,2013-01-29,,English,,,,2,1,male
EySOE,17,22,fem_plain,fem_sws,1,dog,bike,dog,dog,bike,fem_plain_fem_sws,critical,3/9/2017,14:25,left,true,4378,2,2_1_2_1,word_2_word_1,far,dog,Clear_After,preschool,hanna,2013-01-29,,English,,,,2,1,male
EySOE,17,22,fem_plain,fem_sws,2,dog,bike,dog,dog,bike,fem_plain_fem_sws,critical,3/9/2017,14:25,right,true,456,2,2_1_2_1,word_2_word_1,far,bike,Clear_After,preschool,hanna,2013-01-29,,English,,,,2,1,male
EySOE,17,22,fem_plain,fem_sws,3,dog,bike,dog,dog,bike,fem_plain_fem_sws,critical,3/9/2017,14:25,left,true,177,1,2_1_2_1,word_2_word_1,far,dog,Clear_After,preschool,hanna,2013-01-29,,English,,,,2,1,male
EySOE,18,14,fem_plain,fem_sws,1,cheese,shoes,cheese,shoes,cheese,fem_plain_fem_sws,critical,3/9/2017,14:25,right,true,2702,2,2_1_2_1,word_2_word_1,far,cheese,Clear_After,preschool,hanna,2013-01-29,,English,,,,2,1,male
EySOE,18,14,fem_plain,fem_sws,2,cheese,shoes,cheese,shoes,cheese,fem_plain_fem_sws,critical,3/9/2017,14:25,left,true,2201,2,2_1_2_1,word_2_word_1,far,shoes,Clear_After,preschool,hanna,2013-01-29,,English,,,,2,1,male
EySOE,18,14,fem_plain,fem_sws,3,cheese,shoes,cheese,shoes,cheese,fem_plain_fem_sws,critical,3/9/2017,14:25,left,false,2611,2,2_1_2_1,word_2_word_1,far,shoes,Clear_After,preschool,hanna,2013-01-29,,English,,,,2,1,male
EySOE,19,11,fem_plain,fem_sws,1,book,lorry,lorry,lorry,book,fem_plain_fem_sws,critical,3/9/2017,14:25,left,false,3146,2,1_2_2_1,word_2_word_1,near,lorry,Clear_After,preschool,hanna,2013-01-29,,English,,,,2,1,male
EySOE,19,11,fem_plain,fem_sws,2,book,lorry,lorry,lorry,book,fem_plain_fem_sws,critical,3/9/2017,14:25,right,false,2552,2,1_2_2_1,word_2_word_1,near,book,Clear_After,preschool,hanna,2013-01-29,,English,,,,2,1,male
EySOE,19,11,fem_plain,fem_sws,3,book,lorry,lorry,lorry,book,fem_plain_fem_sws,critical,3/9/2017,14:25,left,true,2803,1,1_2_2_1,word_2_word_1,near,lorry,Clear_After,preschool,hanna,2013-01-29,,English,,,,2,1,male
EySOE,20,15,fem_plain,fem_sws,1,pencil,slide,pencil,slide,pencil,fem_plain_fem_sws,critical,3/9/2017,14:25,right,true,2498,2,1_2_1_1,word_1_word_2,far,pencil,Clear_After,preschool,hanna,2013-01-29,,English,,,,2,1,male
EySOE,20,15,fem_plain,fem_sws,2,pencil,slide,pencil,slide,pencil,fem_plain_fem_sws,critical,3/9/2017,14:25,right,false,2374,2,1_2_1_1,word_1_word_2,far,pencil,Clear_After,preschool,hanna,2013-01-29,,English,,,,2,1,male
EySOE,20,15,fem_plain,fem_sws,3,pencil,slide,pencil,slide,pencil,fem_plain_fem_sws,critical,3/9/2017,14:25,left,false,2355,1,1_2_1_1,word_1_word_2,far,slide,Clear_After,preschool,hanna,2013-01-29,,English,,,,2,1,male
EySOE,21,16,fem_plain,fem_sws,1,paintbrush,banana,paintbrush,paintbrush,banana,fem_plain_fem_sws,critical,3/9/2017,14:25,left,true,4475,2,2_1_2_1,word_1_word_2,far,paintbrush,Clear_After,preschool,hanna,2013-01-29,,English,,,,2,1,male
EySOE,21,16,fem_plain,fem_sws,2,paintbrush,banana,paintbrush,paintbrush,banana,fem_plain_fem_sws,critical,3/9/2017,14:25,left,false,2968,1,2_1_2_1,word_1_word_2,far,paintbrush,Clear_After,preschool,hanna,2013-01-29,,English,,,,2,1,male
EySOE,21,16,fem_plain,fem_sws,3,paintbrush,banana,paintbrush,paintbrush,banana,fem_plain_fem_sws,critical,3/9/2017,14:25,right,false,3415,1,2_1_2_1,word_1_word_2,far,banana,Clear_After,preschool,hanna,2013-01-29,,English,,,,2,1,male
EySOE,22,7,fem_plain,fem_sws,1,lolly,horse,horse,lolly,horse,fem_plain_fem_sws,critical,3/9/2017,14:25,right,false,7094,2,1_2_2_1,word_1_word_2,near,horse,Clear_After,preschool,hanna,2013-01-29,,English,,,,2,1,male
EySOE,22,7,fem_plain,fem_sws,2,lolly,horse,horse,lolly,horse,fem_plain_fem_sws,critical,3/9/2017,14:25,left,false,3328,1,1_2_2_1,word_1_word_2,near,lolly,Clear_After,preschool,hanna,2013-01-29,,English,,,,2,1,male
EySOE,22,7,fem_plain,fem_sws,3,lolly,horse,horse,lolly,horse,fem_plain_fem_sws,critical,3/9/2017,14:25,right,true,553,1,1_2_2_1,word_1_word_2,near,horse,Clear_After,preschool,hanna,2013-01-29,,English,,,,2,1,male
EySOE,23,8,fem_plain,fem_sws,1,fire_engine,wellyboots,wellyboots,fire_engine,wellyboots,fem_plain_fem_sws,critical,3/9/2017,14:25,right,false,3170,2,2_1_1_1,word_2_word_1,near,wellyboots,Clear_After,preschool,hanna,2013-01-29,,English,,,,2,1,male
EySOE,23,8,fem_plain,fem_sws,2,fire_engine,wellyboots,wellyboots,fire_engine,wellyboots,fem_plain_fem_sws,critical,3/9/2017,14:25,left,false,3526,2,2_1_1_1,word_2_word_1,near,fire_engine,Clear_After,preschool,hanna,2013-01-29,,English,,,,2,1,male
EySOE,23,8,fem_plain,fem_sws,3,fire_engine,wellyboots,wellyboots,fire_engine,wellyboots,fem_plain_fem_sws,critical,3/9/2017,14:25,right,true,4772,2,2_1_1_1,word_2_word_1,near,wellyboots,Clear_After,preschool,hanna,2013-01-29,,English,,,,2,1,male
EySOE,24,23,fem_plain,fem_sws,1,teddy_bear,bath,bath,bath,teddy_bear,fem_plain_fem_sws,critical,3/9/2017,14:25,right,true,6392,7,2_1_1_1,word_1_word_2,near,teddy_bear,Clear_After,preschool,hanna,2013-01-29,,English,,,,2,1,male
EySOE,24,23,fem_plain,fem_sws,2,teddy_bear,bath,bath,bath,teddy_bear,fem_plain_fem_sws,critical,3/9/2017,14:25,right,false,2946,2,2_1_1_1,word_1_word_2,near,teddy_bear,Clear_After,preschool,hanna,2013-01-29,,English,,,,2,1,male
EySOE,24,23,fem_plain,fem_sws,3,teddy_bear,bath,bath,bath,teddy_bear,fem_plain_fem_sws,critical,3/9/2017,14:25,left,true,2674,1,2_1_1_1,word_1_word_2,near,bath,Clear_After,preschool,hanna,2013-01-29,,English,,,,2,1,male
EySOE,25,10,fem_plain,fem_sws,1,pig,tshirt,pig,pig,tshirt,fem_plain_fem_sws,critical,3/9/2017,14:25,left,true,3050,2,1_2_1_1,word_1_word_2,far,pig,Clear_After,preschool,hanna,2013-01-29,,English,,,,2,1,male
EySOE,25,10,fem_plain,fem_sws,2,pig,tshirt,pig,pig,tshirt,fem_plain_fem_sws,critical,3/9/2017,14:25,right,true,83,2,1_2_1_1,word_1_word_2,far,tshirt,Clear_After,preschool,hanna,2013-01-29,,English,,,,2,1,male
EySOE,25,10,fem_plain,fem_sws,3,pig,tshirt,pig,pig,tshirt,fem_plain_fem_sws,critical,3/9/2017,14:25,right,false,3174,2,1_2_1_1,word_1_word_2,far,tshirt,Clear_After,preschool,hanna,2013-01-29,,English,,,,2,1,male
