subject_id,trial_number,trial_id,plain,sws,instruction_number,sound1_item,sound2_item,sound3_item,left_image,right_image,sound_gender,trial_type,date_stamp,time_stamp,side_chosen,accuracy,rt,play_counter,order,pic_position,distance,chosen_pic,test_lang,testing_loc,tester,date_of_birth,ethnicity,native_lang,other_langs,parental_occ,dev_info,birth_order,num_siblings,gender
ffoAv,1,0,fem_plain,mal_sws,1,fireman,glasses,fireman,glasses,fireman,fem_plain_mal_sws,training,2/16/2017,9:53,right,true,3073,4,1_2_1_1,word_2_word_1,far,fireman,Clear_Before,preschool,hanna,2013-01-14,,English,,,,1,1,male
ffoAv,1,0,fem_plain,mal_sws,2,fireman,glasses,fireman,glasses,fireman,fem_plain_mal_sws,training,2/16/2017,9:53,left,true,1817,2,1_2_1_1,word_2_word_1,far,glasses,Clear_Before,preschool,hanna,2013-01-14,,English,,,,1,1,male
ffoAv,1,0,fem_plain,mal_sws,3,fireman,glasses,fireman,glasses,fireman,fem_plain_mal_sws,training,2/16/2017,9:53,right,true,3977,6,1_2_1_1,word_2_word_1,far,fireman,Clear_Before,preschool,hanna,2013-01-14,,English,,,,1,1,male
ffoAv,2,10,fem_plain,mal_sws,1,tshirt,pig,tshirt,tshirt,pig,fem_plain_mal_sws,critical,2/16/2017,9:53,left,true,3368,2,1_2_1_1,word_2_word_1,far,tshirt,Clear_Before,preschool,hanna,2013-01-14,,English,,,,1,1,male
ffoAv,2,10,fem_plain,mal_sws,2,tshirt,pig,tshirt,tshirt,pig,fem_plain_mal_sws,critical,2/16/2017,9:53,right,true,1883,1,1_2_1_1,word_2_word_1,far,pig,Clear_Before,preschool,hanna,2013-01-14,,English,,,,1,1,male
ffoAv,2,10,fem_plain,mal_sws,3,tshirt,pig,tshirt,tshirt,pig,fem_plain_mal_sws,critical,2/16/2017,9:53,right,false,3213,3,1_2_1_1,word_2_word_1,far,pig,Clear_Before,preschool,hanna,2013-01-14,,English,,,,1,1,male
ffoAv,3,16,fem_plain,mal_sws,1,banana,paintbrush,paintbrush,paintbrush,banana,fem_plain_mal_sws,critical,2/16/2017,9:53,right,true,2211,4,1_2_2_1,word_1_word_2,near,banana,Clear_Before,preschool,hanna,2013-01-14,,English,,,,1,1,male
ffoAv,3,16,fem_plain,mal_sws,2,banana,paintbrush,paintbrush,paintbrush,banana,fem_plain_mal_sws,critical,2/16/2017,9:53,left,true,2234,2,1_2_2_1,word_1_word_2,near,paintbrush,Clear_Before,preschool,hanna,2013-01-14,,English,,,,1,1,male
ffoAv,3,16,fem_plain,mal_sws,3,banana,paintbrush,paintbrush,paintbrush,banana,fem_plain_mal_sws,critical,2/16/2017,9:53,right,false,5251,2,1_2_2_1,word_1_word_2,near,banana,Clear_Before,preschool,hanna,2013-01-14,,English,,,,1,1,male
ffoAv,4,14,fem_plain,mal_sws,1,cheese,shoes,shoes,cheese,shoes,fem_plain_mal_sws,critical,2/16/2017,9:53,left,true,2743,2,2_1_1_1,word_1_word_2,near,cheese,Clear_Before,preschool,hanna,2013-01-14,,English,,,,1,1,male
ffoAv,4,14,fem_plain,mal_sws,2,cheese,shoes,shoes,cheese,shoes,fem_plain_mal_sws,critical,2/16/2017,9:53,right,true,2554,1,2_1_1_1,word_1_word_2,near,shoes,Clear_Before,preschool,hanna,2013-01-14,,English,,,,1,1,male
ffoAv,4,14,fem_plain,mal_sws,3,cheese,shoes,shoes,cheese,shoes,fem_plain_mal_sws,critical,2/16/2017,9:53,right,true,3438,2,2_1_1_1,word_1_word_2,near,shoes,Clear_Before,preschool,hanna,2013-01-14,,English,,,,1,1,male
ffoAv,5,23,fem_plain,mal_sws,1,bath,teddy_bear,teddy_bear,bath,teddy_bear,fem_plain_mal_sws,critical,2/16/2017,9:53,left,true,2887,2,2_1_1_1,word_1_word_2,near,bath,Clear_Before,preschool,hanna,2013-01-14,,English,,,,1,1,male
ffoAv,5,23,fem_plain,mal_sws,2,bath,teddy_bear,teddy_bear,bath,teddy_bear,fem_plain_mal_sws,critical,2/16/2017,9:53,right,true,2723,2,2_1_1_1,word_1_word_2,near,teddy_bear,Clear_Before,preschool,hanna,2013-01-14,,English,,,,1,1,male
ffoAv,5,23,fem_plain,mal_sws,3,bath,teddy_bear,teddy_bear,bath,teddy_bear,fem_plain_mal_sws,critical,2/16/2017,9:53,right,true,4079,2,2_1_1_1,word_1_word_2,near,teddy_bear,Clear_Before,preschool,hanna,2013-01-14,,English,,,,1,1,male
ffoAv,6,21,fem_plain,mal_sws,1,frog,sheep,sheep,sheep,frog,fem_plain_mal_sws,critical,2/16/2017,9:53,right,true,3210,2,1_2_2_1,word_2_word_1,near,frog,Clear_Before,preschool,hanna,2013-01-14,,English,,,,1,1,male
ffoAv,6,21,fem_plain,mal_sws,2,frog,sheep,sheep,sheep,frog,fem_plain_mal_sws,critical,2/16/2017,9:53,left,true,2356,1,1_2_2_1,word_2_word_1,near,sheep,Clear_Before,preschool,hanna,2013-01-14,,English,,,,1,1,male
ffoAv,6,21,fem_plain,mal_sws,3,frog,sheep,sheep,sheep,frog,fem_plain_mal_sws,critical,2/16/2017,9:53,right,false,3267,2,1_2_2_1,word_2_word_1,near,frog,Clear_Before,preschool,hanna,2013-01-14,,English,,,,1,1,male
ffoAv,7,6,fem_plain,mal_sws,1,bird,peas,bird,bird,peas,fem_plain_mal_sws,critical,2/16/2017,9:53,left,true,2149,2,2_1_2_1,word_1_word_2,far,bird,Clear_Before,preschool,hanna,2013-01-14,,English,,,,1,1,male
ffoAv,7,6,fem_plain,mal_sws,2,bird,peas,bird,bird,peas,fem_plain_mal_sws,critical,2/16/2017,9:53,right,true,2312,1,2_1_2_1,word_1_word_2,far,peas,Clear_Before,preschool,hanna,2013-01-14,,English,,,,1,1,male
ffoAv,7,6,fem_plain,mal_sws,3,bird,peas,bird,bird,peas,fem_plain_mal_sws,critical,2/16/2017,9:53,left,true,3014,2,2_1_2_1,word_1_word_2,far,bird,Clear_Before,preschool,hanna,2013-01-14,,English,,,,1,1,male
ffoAv,8,11,fem_plain,mal_sws,1,book,lorry,book,book,lorry,fem_plain_mal_sws,critical,2/16/2017,9:53,left,true,2874,2,1_2_1_1,word_1_word_2,far,book,Clear_Before,preschool,hanna,2013-01-14,,English,,,,1,1,male
ffoAv,8,11,fem_plain,mal_sws,2,book,lorry,book,book,lorry,fem_plain_mal_sws,critical,2/16/2017,9:53,right,true,2015,1,1_2_1_1,word_1_word_2,far,lorry,Clear_Before,preschool,hanna,2013-01-14,,English,,,,1,1,male
ffoAv,8,11,fem_plain,mal_sws,3,book,lorry,book,book,lorry,fem_plain_mal_sws,critical,2/16/2017,9:53,right,false,3345,2,1_2_1_1,word_1_word_2,far,lorry,Clear_Before,preschool,hanna,2013-01-14,,English,,,,1,1,male
ffoAv,9,24,fem_plain,mal_sws,1,fish,sink,fish,fish,sink,fem_plain_mal_sws,critical,2/16/2017,9:53,left,true,2284,2,2_1_2_1,word_2_word_1,far,fish,Clear_Before,preschool,hanna,2013-01-14,,English,,,,1,1,male
ffoAv,9,24,fem_plain,mal_sws,2,fish,sink,fish,fish,sink,fem_plain_mal_sws,critical,2/16/2017,9:53,right,true,2550,1,2_1_2_1,word_2_word_1,far,sink,Clear_Before,preschool,hanna,2013-01-14,,English,,,,1,1,male
ffoAv,9,24,fem_plain,mal_sws,3,fish,sink,fish,fish,sink,fem_plain_mal_sws,critical,2/16/2017,9:53,right,false,4881,1,2_1_2_1,word_2_word_1,far,sink,Clear_Before,preschool,hanna,2013-01-14,,English,,,,1,1,male
ffoAv,10,18,fem_plain,mal_sws,1,ball,raspberry,ball,raspberry,ball,fem_plain_mal_sws,critical,2/16/2017,9:53,right,true,3187,2,1_2_1_1,word_2_word_1,far,ball,Clear_Before,preschool,hanna,2013-01-14,,English,,,,1,1,male
ffoAv,10,18,fem_plain,mal_sws,2,ball,raspberry,ball,raspberry,ball,fem_plain_mal_sws,critical,2/16/2017,9:53,left,true,2953,1,1_2_1_1,word_2_word_1,far,raspberry,Clear_Before,preschool,hanna,2013-01-14,,English,,,,1,1,male
ffoAv,10,18,fem_plain,mal_sws,3,ball,raspberry,ball,raspberry,ball,fem_plain_mal_sws,critical,2/16/2017,9:53,right,true,3056,2,1_2_1_1,word_2_word_1,far,ball,Clear_Before,preschool,hanna,2013-01-14,,English,,,,1,1,male
ffoAv,11,5,fem_plain,mal_sws,1,orange,car,car,car,orange,fem_plain_mal_sws,critical,2/16/2017,9:53,right,true,2852,2,1_2_2_1,word_2_word_1,near,orange,Clear_Before,preschool,hanna,2013-01-14,,English,,,,1,1,male
ffoAv,11,5,fem_plain,mal_sws,2,orange,car,car,car,orange,fem_plain_mal_sws,critical,2/16/2017,9:53,left,true,2673,1,1_2_2_1,word_2_word_1,near,car,Clear_Before,preschool,hanna,2013-01-14,,English,,,,1,1,male
ffoAv,11,5,fem_plain,mal_sws,3,orange,car,car,car,orange,fem_plain_mal_sws,critical,2/16/2017,9:53,left,true,2416,1,1_2_2_1,word_2_word_1,near,car,Clear_Before,preschool,hanna,2013-01-14,,English,,,,1,1,male
ffoAv,12,12,fem_plain,mal_sws,1,yoghurt,foot,yoghurt,foot,yoghurt,fem_plain_mal_sws,critical,2/16/2017,9:53,right,true,2584,2,2_1_2_1,word_1_word_2,far,yoghurt,Clear_Before,preschool,hanna,2013-01-14,,English,,,,1,1,male
ffoAv,12,12,fem_plain,mal_sws,2,yoghurt,foot,yoghurt,foot,yoghurt,fem_plain_mal_sws,critical,2/16/2017,9:53,left,true,1815,1,2_1_2_1,word_1_word_2,far,foot,Clear_Before,preschool,hanna,2013-01-14,,English,,,,1,1,male
ffoAv,12,12,fem_plain,mal_sws,3,yoghurt,foot,yoghurt,foot,yoghurt,fem_plain_mal_sws,critical,2/16/2017,9:53,left,false,2678,1,2_1_2_1,word_1_word_2,far,foot,Clear_Before,preschool,hanna,2013-01-14,,English,,,,1,1,male
ffoAv,13,9,fem_plain,mal_sws,1,window,pizza,pizza,window,pizza,fem_plain_mal_sws,critical,2/16/2017,9:53,left,true,2086,2,2_1_1_1,word_2_word_1,near,window,Clear_Before,preschool,hanna,2013-01-14,,English,,,,1,1,male
ffoAv,13,9,fem_plain,mal_sws,2,window,pizza,pizza,window,pizza,fem_plain_mal_sws,critical,2/16/2017,9:53,right,true,2149,1,2_1_1_1,word_2_word_1,near,pizza,Clear_Before,preschool,hanna,2013-01-14,,English,,,,1,1,male
ffoAv,13,9,fem_plain,mal_sws,3,window,pizza,pizza,window,pizza,fem_plain_mal_sws,critical,2/16/2017,9:53,right,true,2415,2,2_1_1_1,word_2_word_1,near,pizza,Clear_Before,preschool,hanna,2013-01-14,,English,,,,1,1,male
ffoAv,14,13,fem_plain,mal_sws,1,airplane,toothbrush,toothbrush,airplane,toothbrush,fem_plain_mal_sws,critical,2/16/2017,9:53,left,true,2409,4,1_2_2_1,word_2_word_1,near,airplane,Clear_Before,preschool,hanna,2013-01-14,,English,,,,1,1,male
ffoAv,14,13,fem_plain,mal_sws,2,airplane,toothbrush,toothbrush,airplane,toothbrush,fem_plain_mal_sws,critical,2/16/2017,9:53,right,true,2147,1,1_2_2_1,word_2_word_1,near,toothbrush,Clear_Before,preschool,hanna,2013-01-14,,English,,,,1,1,male
ffoAv,14,13,fem_plain,mal_sws,3,airplane,toothbrush,toothbrush,airplane,toothbrush,fem_plain_mal_sws,critical,2/16/2017,9:53,right,true,2907,1,1_2_2_1,word_2_word_1,near,toothbrush,Clear_Before,preschool,hanna,2013-01-14,,English,,,,1,1,male
ffoAv,15,19,fem_plain,mal_sws,1,building_blocks,santa,building_blocks,santa,building_blocks,fem_plain_mal_sws,critical,2/16/2017,9:53,right,true,2519,2,2_1_2_1,word_1_word_2,far,building_blocks,Clear_Before,preschool,hanna,2013-01-14,,English,,,,1,1,male
ffoAv,15,19,fem_plain,mal_sws,2,building_blocks,santa,building_blocks,santa,building_blocks,fem_plain_mal_sws,critical,2/16/2017,9:53,left,true,3150,1,2_1_2_1,word_1_word_2,far,santa,Clear_Before,preschool,hanna,2013-01-14,,English,,,,1,1,male
ffoAv,15,19,fem_plain,mal_sws,3,building_blocks,santa,building_blocks,santa,building_blocks,fem_plain_mal_sws,critical,2/16/2017,9:53,left,false,4915,2,2_1_2_1,word_1_word_2,far,santa,Clear_Before,preschool,hanna,2013-01-14,,English,,,,1,1,male
ffoAv,16,17,fem_plain,mal_sws,1,ambulance,cake,cake,ambulance,cake,fem_plain_mal_sws,critical,2/16/2017,9:53,left,true,2426,2,2_1_1_1,word_2_word_1,near,ambulance,Clear_Before,preschool,hanna,2013-01-14,,English,,,,1,1,male
ffoAv,16,17,fem_plain,mal_sws,2,ambulance,cake,cake,ambulance,cake,fem_plain_mal_sws,critical,2/16/2017,9:53,right,true,2441,1,2_1_1_1,word_2_word_1,near,cake,Clear_Before,preschool,hanna,2013-01-14,,English,,,,1,1,male
ffoAv,16,17,fem_plain,mal_sws,3,ambulance,cake,cake,ambulance,cake,fem_plain_mal_sws,critical,2/16/2017,9:53,right,true,2240,2,2_1_1_1,word_2_word_1,near,cake,Clear_Before,preschool,hanna,2013-01-14,,English,,,,1,1,male
ffoAv,17,22,fem_plain,mal_sws,1,bike,dog,bike,bike,dog,fem_plain_mal_sws,critical,2/16/2017,9:53,left,true,2449,2,1_2_1_1,word_1_word_2,far,bike,Clear_Before,preschool,hanna,2013-01-14,,English,,,,1,1,male
ffoAv,17,22,fem_plain,mal_sws,2,bike,dog,bike,bike,dog,fem_plain_mal_sws,critical,2/16/2017,9:53,right,true,1910,1,1_2_1_1,word_1_word_2,far,dog,Clear_Before,preschool,hanna,2013-01-14,,English,,,,1,1,male
ffoAv,17,22,fem_plain,mal_sws,3,bike,dog,bike,bike,dog,fem_plain_mal_sws,critical,2/16/2017,9:53,left,true,2920,1,1_2_1_1,word_1_word_2,far,bike,Clear_Before,preschool,hanna,2013-01-14,,English,,,,1,1,male
ffoAv,18,20,fem_plain,mal_sws,1,jumper,rabbit,rabbit,jumper,rabbit,fem_plain_mal_sws,critical,2/16/2017,9:53,right,false,2141,4,2_1_1_1,word_1_word_2,near,rabbit,Clear_Before,preschool,hanna,2013-01-14,,English,,,,1,1,male
ffoAv,18,20,fem_plain,mal_sws,2,jumper,rabbit,rabbit,jumper,rabbit,fem_plain_mal_sws,critical,2/16/2017,9:53,left,false,2018,2,2_1_1_1,word_1_word_2,near,jumper,Clear_Before,preschool,hanna,2013-01-14,,English,,,,1,1,male
ffoAv,18,20,fem_plain,mal_sws,3,jumper,rabbit,rabbit,jumper,rabbit,fem_plain_mal_sws,critical,2/16/2017,9:53,right,true,2044,1,2_1_1_1,word_1_word_2,near,rabbit,Clear_Before,preschool,hanna,2013-01-14,,English,,,,1,1,male
ffoAv,19,7,fem_plain,mal_sws,1,lolly,horse,lolly,lolly,horse,fem_plain_mal_sws,critical,2/16/2017,9:53,right,false,2880,2,1_2_1_1,word_1_word_2,far,horse,Clear_Before,preschool,hanna,2013-01-14,,English,,,,1,1,male
ffoAv,19,7,fem_plain,mal_sws,2,lolly,horse,lolly,lolly,horse,fem_plain_mal_sws,critical,2/16/2017,9:53,left,false,2986,2,1_2_1_1,word_1_word_2,far,lolly,Clear_Before,preschool,hanna,2013-01-14,,English,,,,1,1,male
ffoAv,19,7,fem_plain,mal_sws,3,lolly,horse,lolly,lolly,horse,fem_plain_mal_sws,critical,2/16/2017,9:53,right,false,2212,1,1_2_1_1,word_1_word_2,far,horse,Clear_Before,preschool,hanna,2013-01-14,,English,,,,1,1,male
ffoAv,20,8,fem_plain,mal_sws,1,fire_engine,wellyboots,fire_engine,fire_engine,wellyboots,fem_plain_mal_sws,critical,2/16/2017,9:53,left,true,3798,2,2_1_2_1,word_2_word_1,far,fire_engine,Clear_Before,preschool,hanna,2013-01-14,,English,,,,1,1,male
ffoAv,20,8,fem_plain,mal_sws,2,fire_engine,wellyboots,fire_engine,fire_engine,wellyboots,fem_plain_mal_sws,critical,2/16/2017,9:53,left,false,3552,2,2_1_2_1,word_2_word_1,far,fire_engine,Clear_Before,preschool,hanna,2013-01-14,,English,,,,1,1,male
ffoAv,20,8,fem_plain,mal_sws,3,fire_engine,wellyboots,fire_engine,fire_engine,wellyboots,fem_plain_mal_sws,critical,2/16/2017,9:53,right,false,2272,2,2_1_2_1,word_2_word_1,far,wellyboots,Clear_Before,preschool,hanna,2013-01-14,,English,,,,1,1,male
ffoAv,21,4,fem_plain,mal_sws,1,coat,strawberry,strawberry,coat,strawberry,fem_plain_mal_sws,critical,2/16/2017,9:53,right,false,3358,4,1_2_2_1,word_1_word_2,near,strawberry,Clear_Before,preschool,hanna,2013-01-14,,English,,,,1,1,male
ffoAv,21,4,fem_plain,mal_sws,2,coat,strawberry,strawberry,coat,strawberry,fem_plain_mal_sws,critical,2/16/2017,9:53,left,false,2354,2,1_2_2_1,word_1_word_2,near,coat,Clear_Before,preschool,hanna,2013-01-14,,English,,,,1,1,male
ffoAv,21,4,fem_plain,mal_sws,3,coat,strawberry,strawberry,coat,strawberry,fem_plain_mal_sws,critical,2/16/2017,9:53,right,true,2240,1,1_2_2_1,word_1_word_2,near,strawberry,Clear_Before,preschool,hanna,2013-01-14,,English,,,,1,1,male
ffoAv,22,2,fem_plain,mal_sws,1,bed,chicken,chicken,chicken,bed,fem_plain_mal_sws,critical,2/16/2017,9:53,left,false,2783,2,2_1_1_1,word_2_word_1,near,chicken,Clear_Before,preschool,hanna,2013-01-14,,English,,,,1,1,male
ffoAv,22,2,fem_plain,mal_sws,2,bed,chicken,chicken,chicken,bed,fem_plain_mal_sws,critical,2/16/2017,9:53,right,false,2480,2,2_1_1_1,word_2_word_1,near,bed,Clear_Before,preschool,hanna,2013-01-14,,English,,,,1,1,male
ffoAv,22,2,fem_plain,mal_sws,3,bed,chicken,chicken,chicken,bed,fem_plain_mal_sws,critical,2/16/2017,9:53,left,true,2581,1,2_1_1_1,word_2_word_1,near,chicken,Clear_Before,preschool,hanna,2013-01-14,,English,,,,1,1,male
ffoAv,23,1,fem_plain,mal_sws,1,spoon,baby,spoon,baby,spoon,fem_plain_mal_sws,critical,2/16/2017,9:53,right,true,2410,2,2_1_2_1,word_2_word_1,far,spoon,Clear_Before,preschool,hanna,2013-01-14,,English,,,,1,1,male
ffoAv,23,1,fem_plain,mal_sws,2,spoon,baby,spoon,baby,spoon,fem_plain_mal_sws,critical,2/16/2017,9:53,right,false,2481,2,2_1_2_1,word_2_word_1,far,spoon,Clear_Before,preschool,hanna,2013-01-14,,English,,,,1,1,male
ffoAv,23,1,fem_plain,mal_sws,3,spoon,baby,spoon,baby,spoon,fem_plain_mal_sws,critical,2/16/2017,9:53,left,false,1984,2,2_1_2_1,word_2_word_1,far,baby,Clear_Before,preschool,hanna,2013-01-14,,English,,,,1,1,male
ffoAv,24,15,fem_plain,mal_sws,1,slide,pencil,pencil,pencil,slide,fem_plain_mal_sws,critical,2/16/2017,9:53,left,false,2508,2,1_2_2_1,word_2_word_1,near,pencil,Clear_Before,preschool,hanna,2013-01-14,,English,,,,1,1,male
ffoAv,24,15,fem_plain,mal_sws,2,slide,pencil,pencil,pencil,slide,fem_plain_mal_sws,critical,2/16/2017,9:53,right,false,2040,2,1_2_2_1,word_2_word_1,near,slide,Clear_Before,preschool,hanna,2013-01-14,,English,,,,1,1,male
ffoAv,24,15,fem_plain,mal_sws,3,slide,pencil,pencil,pencil,slide,fem_plain_mal_sws,critical,2/16/2017,9:53,left,true,1980,2,1_2_2_1,word_2_word_1,near,pencil,Clear_Before,preschool,hanna,2013-01-14,,English,,,,1,1,male
ffoAv,25,3,fem_plain,mal_sws,1,trousers,nose,trousers,nose,trousers,fem_plain_mal_sws,critical,2/16/2017,9:53,right,true,2418,2,1_2_1_1,word_2_word_1,far,trousers,Clear_Before,preschool,hanna,2013-01-14,,English,,,,1,1,male
ffoAv,25,3,fem_plain,mal_sws,2,trousers,nose,trousers,nose,trousers,fem_plain_mal_sws,critical,2/16/2017,9:53,right,false,2805,1,1_2_1_1,word_2_word_1,far,trousers,Clear_Before,preschool,hanna,2013-01-14,,English,,,,1,1,male
ffoAv,25,3,fem_plain,mal_sws,3,trousers,nose,trousers,nose,trousers,fem_plain_mal_sws,critical,2/16/2017,9:53,left,false,1880,1,1_2_1_1,word_2_word_1,far,nose,Clear_Before,preschool,hanna,2013-01-14,,English,,,,1,1,male
