subject_id,trial_number,trial_id,plain,sws,instruction_number,sound1_item,sound2_item,sound3_item,left_image,right_image,sound_gender,trial_type,date_stamp,time_stamp,side_chosen,accuracy,rt,play_counter,order,pic_position,distance,chosen_pic,test_lang,testing_loc,tester,date_of_birth,ethnicity,native_lang,other_langs,parental_occ,dev_info,birth_order,num_siblings,gender
fMB3U,1,0,mal_plain,mal_sws,1,fireman,glasses,fireman,glasses,fireman,mal_plain_mal_sws,training,3/22/2017,15:02,right,true,5475,4,2_1_2_1,word_2_word_1,far,fireman,Clear_After,preschool,hanna,2012-06-14,,English,,,,,,male
fMB3U,1,0,mal_plain,mal_sws,2,fireman,glasses,fireman,glasses,fireman,mal_plain_mal_sws,training,3/22/2017,15:02,right,false,2734,2,2_1_2_1,word_2_word_1,far,fireman,Clear_After,preschool,hanna,2012-06-14,,English,,,,,,male
fMB3U,1,0,mal_plain,mal_sws,3,fireman,glasses,fireman,glasses,fireman,mal_plain_mal_sws,training,3/22/2017,15:02,right,true,1261,1,2_1_2_1,word_2_word_1,far,fireman,Clear_After,preschool,hanna,2012-06-14,,English,,,,,,male
fMB3U,2,13,mal_plain,mal_sws,1,toothbrush,airplane,airplane,toothbrush,airplane,mal_plain_mal_sws,critical,3/22/2017,15:02,right,false,4732,4,1_2_2_1,word_1_word_2,near,airplane,Clear_After,preschool,hanna,2012-06-14,,English,,,,,,male
fMB3U,2,13,mal_plain,mal_sws,2,toothbrush,airplane,airplane,toothbrush,airplane,mal_plain_mal_sws,critical,3/22/2017,15:02,left,false,2383,2,1_2_2_1,word_1_word_2,near,toothbrush,Clear_After,preschool,hanna,2012-06-14,,English,,,,,,male
fMB3U,2,13,mal_plain,mal_sws,3,toothbrush,airplane,airplane,toothbrush,airplane,mal_plain_mal_sws,critical,3/22/2017,15:02,right,true,2096,1,1_2_2_1,word_1_word_2,near,airplane,Clear_After,preschool,hanna,2012-06-14,,English,,,,,,male
fMB3U,3,18,mal_plain,mal_sws,1,raspberry,ball,ball,raspberry,ball,mal_plain_mal_sws,critical,3/22/2017,15:02,right,false,9051,2,2_1_1_1,word_2_word_1,near,ball,Clear_After,preschool,hanna,2012-06-14,,English,,,,,,male
fMB3U,3,18,mal_plain,mal_sws,2,raspberry,ball,ball,raspberry,ball,mal_plain_mal_sws,critical,3/22/2017,15:02,left,false,3210,2,2_1_1_1,word_2_word_1,near,raspberry,Clear_After,preschool,hanna,2012-06-14,,English,,,,,,male
fMB3U,3,18,mal_plain,mal_sws,3,raspberry,ball,ball,raspberry,ball,mal_plain_mal_sws,critical,3/22/2017,15:02,right,true,2382,2,2_1_1_1,word_2_word_1,near,ball,Clear_After,preschool,hanna,2012-06-14,,English,,,,,,male
fMB3U,4,24,mal_plain,mal_sws,1,fish,sink,sink,fish,sink,mal_plain_mal_sws,critical,3/22/2017,15:02,left,true,7843,2,2_1_1_1,word_2_word_1,near,fish,Clear_After,preschool,hanna,2012-06-14,,English,,,,,,male
fMB3U,4,24,mal_plain,mal_sws,2,fish,sink,sink,fish,sink,mal_plain_mal_sws,critical,3/22/2017,15:02,left,false,2382,1,2_1_1_1,word_2_word_1,near,fish,Clear_After,preschool,hanna,2012-06-14,,English,,,,,,male
fMB3U,4,24,mal_plain,mal_sws,3,fish,sink,sink,fish,sink,mal_plain_mal_sws,critical,3/22/2017,15:02,right,true,196,2,2_1_1_1,word_2_word_1,near,sink,Clear_After,preschool,hanna,2012-06-14,,English,,,,,,male
fMB3U,5,20,mal_plain,mal_sws,1,rabbit,jumper,jumper,rabbit,jumper,mal_plain_mal_sws,critical,3/22/2017,15:02,left,true,4205,2,1_2_2_1,word_2_word_1,near,rabbit,Clear_After,preschool,hanna,2012-06-14,,English,,,,,,male
fMB3U,5,20,mal_plain,mal_sws,2,rabbit,jumper,jumper,rabbit,jumper,mal_plain_mal_sws,critical,3/22/2017,15:02,left,false,1721,1,1_2_2_1,word_2_word_1,near,rabbit,Clear_After,preschool,hanna,2012-06-14,,English,,,,,,male
fMB3U,5,20,mal_plain,mal_sws,3,rabbit,jumper,jumper,rabbit,jumper,mal_plain_mal_sws,critical,3/22/2017,15:02,right,true,1914,1,1_2_2_1,word_2_word_1,near,jumper,Clear_After,preschool,hanna,2012-06-14,,English,,,,,,male
fMB3U,6,21,mal_plain,mal_sws,1,frog,sheep,frog,sheep,frog,mal_plain_mal_sws,critical,3/22/2017,15:02,left,false,3540,4,1_2_1_1,word_2_word_1,far,sheep,Clear_After,preschool,hanna,2012-06-14,,English,,,,,,male
fMB3U,6,21,mal_plain,mal_sws,2,frog,sheep,frog,sheep,frog,mal_plain_mal_sws,critical,3/22/2017,15:02,right,false,2691,2,1_2_1_1,word_2_word_1,far,frog,Clear_After,preschool,hanna,2012-06-14,,English,,,,,,male
fMB3U,6,21,mal_plain,mal_sws,3,frog,sheep,frog,sheep,frog,mal_plain_mal_sws,critical,3/22/2017,15:02,left,false,3042,1,1_2_1_1,word_2_word_1,far,sheep,Clear_After,preschool,hanna,2012-06-14,,English,,,,,,male
fMB3U,7,22,mal_plain,mal_sws,1,dog,bike,dog,bike,dog,mal_plain_mal_sws,critical,3/22/2017,15:02,right,true,2198,2,2_1_2_1,word_1_word_2,far,dog,Clear_After,preschool,hanna,2012-06-14,,English,,,,,,male
fMB3U,7,22,mal_plain,mal_sws,2,dog,bike,dog,bike,dog,mal_plain_mal_sws,critical,3/22/2017,15:02,right,false,2311,2,2_1_2_1,word_1_word_2,far,dog,Clear_After,preschool,hanna,2012-06-14,,English,,,,,,male
fMB3U,7,22,mal_plain,mal_sws,3,dog,bike,dog,bike,dog,mal_plain_mal_sws,critical,3/22/2017,15:02,left,false,2400,1,2_1_2_1,word_1_word_2,far,bike,Clear_After,preschool,hanna,2012-06-14,,English,,,,,,male
fMB3U,8,10,mal_plain,mal_sws,1,pig,tshirt,pig,pig,tshirt,mal_plain_mal_sws,critical,3/22/2017,15:02,left,true,2355,2,2_1_2_1,word_1_word_2,far,pig,Clear_After,preschool,hanna,2012-06-14,,English,,,,,,male
fMB3U,8,10,mal_plain,mal_sws,2,pig,tshirt,pig,pig,tshirt,mal_plain_mal_sws,critical,3/22/2017,15:02,left,false,2061,1,2_1_2_1,word_1_word_2,far,pig,Clear_After,preschool,hanna,2012-06-14,,English,,,,,,male
fMB3U,8,10,mal_plain,mal_sws,3,pig,tshirt,pig,pig,tshirt,mal_plain_mal_sws,critical,3/22/2017,15:02,right,false,2496,1,2_1_2_1,word_1_word_2,far,tshirt,Clear_After,preschool,hanna,2012-06-14,,English,,,,,,male
fMB3U,9,2,mal_plain,mal_sws,1,chicken,bed,bed,bed,chicken,mal_plain_mal_sws,critical,3/22/2017,15:02,left,false,5024,2,1_2_2_1,word_1_word_2,near,bed,Clear_After,preschool,hanna,2012-06-14,,English,,,,,,male
fMB3U,9,2,mal_plain,mal_sws,2,chicken,bed,bed,bed,chicken,mal_plain_mal_sws,critical,3/22/2017,15:02,right,false,2568,1,1_2_2_1,word_1_word_2,near,chicken,Clear_After,preschool,hanna,2012-06-14,,English,,,,,,male
fMB3U,9,2,mal_plain,mal_sws,3,chicken,bed,bed,bed,chicken,mal_plain_mal_sws,critical,3/22/2017,15:02,left,true,2491,1,1_2_2_1,word_1_word_2,near,bed,Clear_After,preschool,hanna,2012-06-14,,English,,,,,,male
fMB3U,10,3,mal_plain,mal_sws,1,trousers,nose,trousers,trousers,nose,mal_plain_mal_sws,critical,3/22/2017,15:02,right,false,5179,1,1_2_1_1,word_1_word_2,far,nose,Clear_After,preschool,hanna,2012-06-14,,English,,,,,,male
fMB3U,10,3,mal_plain,mal_sws,2,trousers,nose,trousers,trousers,nose,mal_plain_mal_sws,critical,3/22/2017,15:02,left,false,2737,1,1_2_1_1,word_1_word_2,far,trousers,Clear_After,preschool,hanna,2012-06-14,,English,,,,,,male
fMB3U,10,3,mal_plain,mal_sws,3,trousers,nose,trousers,trousers,nose,mal_plain_mal_sws,critical,3/22/2017,15:02,right,false,5422,1,1_2_1_1,word_1_word_2,far,nose,Clear_After,preschool,hanna,2012-06-14,,English,,,,,,male
fMB3U,11,19,mal_plain,mal_sws,1,santa,building_blocks,building_blocks,santa,building_blocks,mal_plain_mal_sws,critical,3/22/2017,15:02,right,false,5115,2,1_2_2_1,word_1_word_2,near,building_blocks,Clear_After,preschool,hanna,2012-06-14,,English,,,,,,male
fMB3U,11,19,mal_plain,mal_sws,2,santa,building_blocks,building_blocks,santa,building_blocks,mal_plain_mal_sws,critical,3/22/2017,15:02,left,false,2395,1,1_2_2_1,word_1_word_2,near,santa,Clear_After,preschool,hanna,2012-06-14,,English,,,,,,male
fMB3U,11,19,mal_plain,mal_sws,3,santa,building_blocks,building_blocks,santa,building_blocks,mal_plain_mal_sws,critical,3/22/2017,15:02,right,true,2625,2,1_2_2_1,word_1_word_2,near,building_blocks,Clear_After,preschool,hanna,2012-06-14,,English,,,,,,male
fMB3U,12,12,mal_plain,mal_sws,1,yoghurt,foot,foot,foot,yoghurt,mal_plain_mal_sws,critical,3/22/2017,15:02,left,false,4867,2,2_1_1_1,word_1_word_2,near,foot,Clear_After,preschool,hanna,2012-06-14,,English,,,,,,male
fMB3U,12,12,mal_plain,mal_sws,2,yoghurt,foot,foot,foot,yoghurt,mal_plain_mal_sws,critical,3/22/2017,15:02,right,false,2549,1,2_1_1_1,word_1_word_2,near,yoghurt,Clear_After,preschool,hanna,2012-06-14,,English,,,,,,male
fMB3U,12,12,mal_plain,mal_sws,3,yoghurt,foot,foot,foot,yoghurt,mal_plain_mal_sws,critical,3/22/2017,15:02,left,true,3211,1,2_1_1_1,word_1_word_2,near,foot,Clear_After,preschool,hanna,2012-06-14,,English,,,,,,male
fMB3U,13,15,mal_plain,mal_sws,1,pencil,slide,pencil,slide,pencil,mal_plain_mal_sws,critical,3/22/2017,15:02,right,true,3194,2,1_2_1_1,word_1_word_2,far,pencil,Clear_After,preschool,hanna,2012-06-14,,English,,,,,,male
fMB3U,13,15,mal_plain,mal_sws,2,pencil,slide,pencil,slide,pencil,mal_plain_mal_sws,critical,3/22/2017,15:02,right,false,2417,1,1_2_1_1,word_1_word_2,far,pencil,Clear_After,preschool,hanna,2012-06-14,,English,,,,,,male
fMB3U,13,15,mal_plain,mal_sws,3,pencil,slide,pencil,slide,pencil,mal_plain_mal_sws,critical,3/22/2017,15:02,left,false,5437,1,1_2_1_1,word_1_word_2,far,slide,Clear_After,preschool,hanna,2012-06-14,,English,,,,,,male
fMB3U,14,8,mal_plain,mal_sws,1,fire_engine,wellyboots,wellyboots,fire_engine,wellyboots,mal_plain_mal_sws,critical,3/22/2017,15:02,right,false,3869,2,1_2_2_1,word_2_word_1,near,wellyboots,Clear_After,preschool,hanna,2012-06-14,,English,,,,,,male
fMB3U,14,8,mal_plain,mal_sws,2,fire_engine,wellyboots,wellyboots,fire_engine,wellyboots,mal_plain_mal_sws,critical,3/22/2017,15:02,left,false,2765,1,1_2_2_1,word_2_word_1,near,fire_engine,Clear_After,preschool,hanna,2012-06-14,,English,,,,,,male
fMB3U,14,8,mal_plain,mal_sws,3,fire_engine,wellyboots,wellyboots,fire_engine,wellyboots,mal_plain_mal_sws,critical,3/22/2017,15:02,right,true,2221,1,1_2_2_1,word_2_word_1,near,wellyboots,Clear_After,preschool,hanna,2012-06-14,,English,,,,,,male
fMB3U,15,14,mal_plain,mal_sws,1,cheese,shoes,shoes,shoes,cheese,mal_plain_mal_sws,critical,3/22/2017,15:02,right,true,2587,2,2_1_1_1,word_2_word_1,near,cheese,Clear_After,preschool,hanna,2012-06-14,,English,,,,,,male
fMB3U,15,14,mal_plain,mal_sws,2,cheese,shoes,shoes,shoes,cheese,mal_plain_mal_sws,critical,3/22/2017,15:02,right,false,2479,1,2_1_1_1,word_2_word_1,near,cheese,Clear_After,preschool,hanna,2012-06-14,,English,,,,,,male
fMB3U,15,14,mal_plain,mal_sws,3,cheese,shoes,shoes,shoes,cheese,mal_plain_mal_sws,critical,3/22/2017,15:02,left,true,1846,1,2_1_1_1,word_2_word_1,near,shoes,Clear_After,preschool,hanna,2012-06-14,,English,,,,,,male
fMB3U,16,7,mal_plain,mal_sws,1,lolly,horse,lolly,lolly,horse,mal_plain_mal_sws,critical,3/22/2017,15:02,right,false,4205,4,1_2_1_1,word_1_word_2,far,horse,Clear_After,preschool,hanna,2012-06-14,,English,,,,,,male
fMB3U,16,7,mal_plain,mal_sws,2,lolly,horse,lolly,lolly,horse,mal_plain_mal_sws,critical,3/22/2017,15:02,left,false,3063,2,1_2_1_1,word_1_word_2,far,lolly,Clear_After,preschool,hanna,2012-06-14,,English,,,,,,male
fMB3U,16,7,mal_plain,mal_sws,3,lolly,horse,lolly,lolly,horse,mal_plain_mal_sws,critical,3/22/2017,15:02,right,false,3313,4,1_2_1_1,word_1_word_2,far,horse,Clear_After,preschool,hanna,2012-06-14,,English,,,,,,male
fMB3U,17,16,mal_plain,mal_sws,1,paintbrush,banana,banana,banana,paintbrush,mal_plain_mal_sws,critical,3/22/2017,15:02,left,false,5400,4,2_1_1_1,word_2_word_1,near,banana,Clear_After,preschool,hanna,2012-06-14,,English,,,,,,male
fMB3U,17,16,mal_plain,mal_sws,2,paintbrush,banana,banana,banana,paintbrush,mal_plain_mal_sws,critical,3/22/2017,15:02,right,false,2647,1,2_1_1_1,word_2_word_1,near,paintbrush,Clear_After,preschool,hanna,2012-06-14,,English,,,,,,male
fMB3U,17,16,mal_plain,mal_sws,3,paintbrush,banana,banana,banana,paintbrush,mal_plain_mal_sws,critical,3/22/2017,15:02,left,true,3404,1,2_1_1_1,word_2_word_1,near,banana,Clear_After,preschool,hanna,2012-06-14,,English,,,,,,male
fMB3U,18,6,mal_plain,mal_sws,1,bird,peas,bird,bird,peas,mal_plain_mal_sws,critical,3/22/2017,15:02,left,true,2517,2,2_1_2_1,word_1_word_2,far,bird,Clear_After,preschool,hanna,2012-06-14,,English,,,,,,male
fMB3U,18,6,mal_plain,mal_sws,2,bird,peas,bird,bird,peas,mal_plain_mal_sws,critical,3/22/2017,15:02,left,false,4574,1,2_1_2_1,word_1_word_2,far,bird,Clear_After,preschool,hanna,2012-06-14,,English,,,,,,male
fMB3U,18,6,mal_plain,mal_sws,3,bird,peas,bird,bird,peas,mal_plain_mal_sws,critical,3/22/2017,15:02,right,false,1974,1,2_1_2_1,word_1_word_2,far,peas,Clear_After,preschool,hanna,2012-06-14,,English,,,,,,male
fMB3U,19,1,mal_plain,mal_sws,1,baby,spoon,baby,spoon,baby,mal_plain_mal_sws,critical,3/22/2017,15:02,right,true,3826,2,1_2_1_1,word_1_word_2,far,baby,Clear_After,preschool,hanna,2012-06-14,,English,,,,,,male
fMB3U,19,1,mal_plain,mal_sws,2,baby,spoon,baby,spoon,baby,mal_plain_mal_sws,critical,3/22/2017,15:02,right,false,2369,2,1_2_1_1,word_1_word_2,far,baby,Clear_After,preschool,hanna,2012-06-14,,English,,,,,,male
fMB3U,19,1,mal_plain,mal_sws,3,baby,spoon,baby,spoon,baby,mal_plain_mal_sws,critical,3/22/2017,15:02,left,false,2477,1,1_2_1_1,word_1_word_2,far,spoon,Clear_After,preschool,hanna,2012-06-14,,English,,,,,,male
fMB3U,20,17,mal_plain,mal_sws,1,cake,ambulance,cake,ambulance,cake,mal_plain_mal_sws,critical,3/22/2017,15:02,right,true,2134,4,2_1_2_1,word_2_word_1,far,cake,Clear_After,preschool,hanna,2012-06-14,,English,,,,,,male
fMB3U,20,17,mal_plain,mal_sws,2,cake,ambulance,cake,ambulance,cake,mal_plain_mal_sws,critical,3/22/2017,15:02,right,false,2170,1,2_1_2_1,word_2_word_1,far,cake,Clear_After,preschool,hanna,2012-06-14,,English,,,,,,male
fMB3U,20,17,mal_plain,mal_sws,3,cake,ambulance,cake,ambulance,cake,mal_plain_mal_sws,critical,3/22/2017,15:02,left,false,2276,1,2_1_2_1,word_2_word_1,far,ambulance,Clear_After,preschool,hanna,2012-06-14,,English,,,,,,male
fMB3U,21,11,mal_plain,mal_sws,1,book,lorry,book,book,lorry,mal_plain_mal_sws,critical,3/22/2017,15:02,left,true,3736,1,2_1_2_1,word_1_word_2,far,book,Clear_After,preschool,hanna,2012-06-14,,English,,,,,,male
fMB3U,21,11,mal_plain,mal_sws,2,book,lorry,book,book,lorry,mal_plain_mal_sws,critical,3/22/2017,15:02,left,false,2600,1,2_1_2_1,word_1_word_2,far,book,Clear_After,preschool,hanna,2012-06-14,,English,,,,,,male
fMB3U,21,11,mal_plain,mal_sws,3,book,lorry,book,book,lorry,mal_plain_mal_sws,critical,3/22/2017,15:02,right,false,7674,1,2_1_2_1,word_1_word_2,far,lorry,Clear_After,preschool,hanna,2012-06-14,,English,,,,,,male
fMB3U,22,5,mal_plain,mal_sws,1,orange,car,car,orange,car,mal_plain_mal_sws,critical,3/22/2017,15:02,left,true,2765,2,1_2_2_1,word_1_word_2,near,orange,Clear_After,preschool,hanna,2012-06-14,,English,,,,,,male
fMB3U,22,5,mal_plain,mal_sws,2,orange,car,car,orange,car,mal_plain_mal_sws,critical,3/22/2017,15:02,right,true,662,1,1_2_2_1,word_1_word_2,near,car,Clear_After,preschool,hanna,2012-06-14,,English,,,,,,male
fMB3U,22,5,mal_plain,mal_sws,3,orange,car,car,orange,car,mal_plain_mal_sws,critical,3/22/2017,15:02,right,true,1538,2,1_2_2_1,word_1_word_2,near,car,Clear_After,preschool,hanna,2012-06-14,,English,,,,,,male
fMB3U,23,23,mal_plain,mal_sws,1,teddy_bear,bath,bath,teddy_bear,bath,mal_plain_mal_sws,critical,3/22/2017,15:02,left,true,4128,2,2_1_1_1,word_2_word_1,near,teddy_bear,Clear_After,preschool,hanna,2012-06-14,,English,,,,,,male
fMB3U,23,23,mal_plain,mal_sws,2,teddy_bear,bath,bath,teddy_bear,bath,mal_plain_mal_sws,critical,3/22/2017,15:02,left,false,2280,1,2_1_1_1,word_2_word_1,near,teddy_bear,Clear_After,preschool,hanna,2012-06-14,,English,,,,,,male
fMB3U,23,23,mal_plain,mal_sws,3,teddy_bear,bath,bath,teddy_bear,bath,mal_plain_mal_sws,critical,3/22/2017,15:02,right,true,1900,1,2_1_1_1,word_2_word_1,near,bath,Clear_After,preschool,hanna,2012-06-14,,English,,,,,,male
fMB3U,24,9,mal_plain,mal_sws,1,window,pizza,window,pizza,window,mal_plain_mal_sws,critical,3/22/2017,15:02,left,false,7974,4,1_2_1_1,word_1_word_2,far,pizza,Clear_After,preschool,hanna,2012-06-14,,English,,,,,,male
fMB3U,24,9,mal_plain,mal_sws,2,window,pizza,window,pizza,window,mal_plain_mal_sws,critical,3/22/2017,15:02,right,false,2123,1,1_2_1_1,word_1_word_2,far,window,Clear_After,preschool,hanna,2012-06-14,,English,,,,,,male
fMB3U,24,9,mal_plain,mal_sws,3,window,pizza,window,pizza,window,mal_plain_mal_sws,critical,3/22/2017,15:02,left,false,2464,1,1_2_1_1,word_1_word_2,far,pizza,Clear_After,preschool,hanna,2012-06-14,,English,,,,,,male
fMB3U,25,4,mal_plain,mal_sws,1,coat,strawberry,coat,coat,strawberry,mal_plain_mal_sws,critical,3/22/2017,15:02,left,true,4640,2,1_2_1_1,word_1_word_2,far,coat,Clear_After,preschool,hanna,2012-06-14,,English,,,,,,male
fMB3U,25,4,mal_plain,mal_sws,2,coat,strawberry,coat,coat,strawberry,mal_plain_mal_sws,critical,3/22/2017,15:02,left,false,2792,3,1_2_1_1,word_1_word_2,far,coat,Clear_After,preschool,hanna,2012-06-14,,English,,,,,,male
fMB3U,25,4,mal_plain,mal_sws,3,coat,strawberry,coat,coat,strawberry,mal_plain_mal_sws,critical,3/22/2017,15:02,right,false,2098,1,1_2_1_1,word_1_word_2,far,strawberry,Clear_After,preschool,hanna,2012-06-14,,English,,,,,,male
