subject_id,trial_number,trial_id,plain,sws,instruction_number,sound1_item,sound2_item,sound3_item,left_image,right_image,sound_gender,trial_type,date_stamp,time_stamp,side_chosen,accuracy,rt,play_counter,order,pic_position,distance,chosen_pic,test_lang,testing_loc,tester,date_of_birth,ethnicity,native_lang,other_langs,parental_occ,dev_info,birth_order,num_siblings,gender
GiyrC,1,0,fem_plain,fem_sws,1,glasses,fireman,glasses,glasses,fireman,fem_plain_fem_sws,training,3/20/2017,11:07,right,false,14679,2,1_2_1_1,word_2_word_1,far,fireman,Clear_After,preschool,hanna,2014-05-26,,English,,,,,,male
GiyrC,1,0,fem_plain,fem_sws,2,glasses,fireman,glasses,glasses,fireman,fem_plain_fem_sws,training,3/20/2017,11:07,left,false,2577,2,1_2_1_1,word_2_word_1,far,glasses,Clear_After,preschool,hanna,2014-05-26,,English,,,,,,male
GiyrC,1,0,fem_plain,fem_sws,3,glasses,fireman,glasses,glasses,fireman,fem_plain_fem_sws,training,3/20/2017,11:07,right,false,2436,4,1_2_1_1,word_2_word_1,far,fireman,Clear_After,preschool,hanna,2014-05-26,,English,,,,,,male
GiyrC,2,16,fem_plain,fem_sws,1,banana,paintbrush,paintbrush,paintbrush,banana,fem_plain_fem_sws,critical,3/20/2017,11:07,right,true,6564,2,1_2_2_1,word_1_word_2,near,banana,Clear_After,preschool,hanna,2014-05-26,,English,,,,,,male
GiyrC,2,16,fem_plain,fem_sws,2,banana,paintbrush,paintbrush,paintbrush,banana,fem_plain_fem_sws,critical,3/20/2017,11:07,right,false,3034,4,1_2_2_1,word_1_word_2,near,banana,Clear_After,preschool,hanna,2014-05-26,,English,,,,,,male
GiyrC,2,16,fem_plain,fem_sws,3,banana,paintbrush,paintbrush,paintbrush,banana,fem_plain_fem_sws,critical,3/20/2017,11:07,left,true,4766,1,1_2_2_1,word_1_word_2,near,paintbrush,Clear_After,preschool,hanna,2014-05-26,,English,,,,,,male
GiyrC,3,15,fem_plain,fem_sws,1,slide,pencil,pencil,slide,pencil,fem_plain_fem_sws,critical,3/20/2017,11:07,right,false,5561,2,1_2_2_1,word_1_word_2,near,pencil,Clear_After,preschool,hanna,2014-05-26,,English,,,,,,male
GiyrC,3,15,fem_plain,fem_sws,2,slide,pencil,pencil,slide,pencil,fem_plain_fem_sws,critical,3/20/2017,11:07,left,false,2847,1,1_2_2_1,word_1_word_2,near,slide,Clear_After,preschool,hanna,2014-05-26,,English,,,,,,male
GiyrC,3,15,fem_plain,fem_sws,3,slide,pencil,pencil,slide,pencil,fem_plain_fem_sws,critical,3/20/2017,11:07,right,true,2635,1,1_2_2_1,word_1_word_2,near,pencil,Clear_After,preschool,hanna,2014-05-26,,English,,,,,,male
GiyrC,4,2,fem_plain,fem_sws,1,chicken,bed,chicken,bed,chicken,fem_plain_fem_sws,critical,3/20/2017,11:07,right,true,5177,2,2_1_2_1,word_1_word_2,far,chicken,Clear_After,preschool,hanna,2014-05-26,,English,,,,,,male
GiyrC,4,2,fem_plain,fem_sws,2,chicken,bed,chicken,bed,chicken,fem_plain_fem_sws,critical,3/20/2017,11:07,right,false,3120,2,2_1_2_1,word_1_word_2,far,chicken,Clear_After,preschool,hanna,2014-05-26,,English,,,,,,male
GiyrC,4,2,fem_plain,fem_sws,3,chicken,bed,chicken,bed,chicken,fem_plain_fem_sws,critical,3/20/2017,11:07,left,false,3113,1,2_1_2_1,word_1_word_2,far,bed,Clear_After,preschool,hanna,2014-05-26,,English,,,,,,male
GiyrC,5,14,fem_plain,fem_sws,1,shoes,cheese,cheese,shoes,cheese,fem_plain_fem_sws,critical,3/20/2017,11:07,right,false,5570,2,2_1_1_1,word_2_word_1,near,cheese,Clear_After,preschool,hanna,2014-05-26,,English,,,,,,male
GiyrC,5,14,fem_plain,fem_sws,2,shoes,cheese,cheese,shoes,cheese,fem_plain_fem_sws,critical,3/20/2017,11:07,left,false,2351,2,2_1_1_1,word_2_word_1,near,shoes,Clear_After,preschool,hanna,2014-05-26,,English,,,,,,male
GiyrC,5,14,fem_plain,fem_sws,3,shoes,cheese,cheese,shoes,cheese,fem_plain_fem_sws,critical,3/20/2017,11:07,right,true,2950,1,2_1_1_1,word_2_word_1,near,cheese,Clear_After,preschool,hanna,2014-05-26,,English,,,,,,male
GiyrC,6,18,fem_plain,fem_sws,1,raspberry,ball,raspberry,raspberry,ball,fem_plain_fem_sws,critical,3/20/2017,11:07,right,false,4356,4,2_1_2_1,word_2_word_1,far,ball,Clear_After,preschool,hanna,2014-05-26,,English,,,,,,male
GiyrC,6,18,fem_plain,fem_sws,2,raspberry,ball,raspberry,raspberry,ball,fem_plain_fem_sws,critical,3/20/2017,11:07,left,false,519,2,2_1_2_1,word_2_word_1,far,raspberry,Clear_After,preschool,hanna,2014-05-26,,English,,,,,,male
GiyrC,6,18,fem_plain,fem_sws,3,raspberry,ball,raspberry,raspberry,ball,fem_plain_fem_sws,critical,3/20/2017,11:07,right,false,2982,2,2_1_2_1,word_2_word_1,far,ball,Clear_After,preschool,hanna,2014-05-26,,English,,,,,,male
GiyrC,7,1,fem_plain,fem_sws,1,spoon,baby,spoon,baby,spoon,fem_plain_fem_sws,critical,3/20/2017,11:07,right,true,7735,4,2_1_2_1,word_2_word_1,far,spoon,Clear_After,preschool,hanna,2014-05-26,,English,,,,,,male
GiyrC,7,1,fem_plain,fem_sws,2,spoon,baby,spoon,baby,spoon,fem_plain_fem_sws,critical,3/20/2017,11:07,right,false,3031,2,2_1_2_1,word_2_word_1,far,spoon,Clear_After,preschool,hanna,2014-05-26,,English,,,,,,male
GiyrC,7,1,fem_plain,fem_sws,3,spoon,baby,spoon,baby,spoon,fem_plain_fem_sws,critical,3/20/2017,11:07,left,false,2875,1,2_1_2_1,word_2_word_1,far,baby,Clear_After,preschool,hanna,2014-05-26,,English,,,,,,male
GiyrC,8,13,fem_plain,fem_sws,1,toothbrush,airplane,airplane,airplane,toothbrush,fem_plain_fem_sws,critical,3/20/2017,11:07,right,true,7495,4,1_2_2_1,word_2_word_1,near,toothbrush,Clear_After,preschool,hanna,2014-05-26,,English,,,,,,male
GiyrC,8,13,fem_plain,fem_sws,2,toothbrush,airplane,airplane,airplane,toothbrush,fem_plain_fem_sws,critical,3/20/2017,11:07,right,false,2759,2,1_2_2_1,word_2_word_1,near,toothbrush,Clear_After,preschool,hanna,2014-05-26,,English,,,,,,male
GiyrC,8,13,fem_plain,fem_sws,3,toothbrush,airplane,airplane,airplane,toothbrush,fem_plain_fem_sws,critical,3/20/2017,11:07,left,true,2762,1,1_2_2_1,word_2_word_1,near,airplane,Clear_After,preschool,hanna,2014-05-26,,English,,,,,,male
GiyrC,9,20,fem_plain,fem_sws,1,jumper,rabbit,jumper,rabbit,jumper,fem_plain_fem_sws,critical,3/20/2017,11:07,right,true,4734,2,1_2_1_1,word_2_word_1,far,jumper,Clear_After,preschool,hanna,2014-05-26,,English,,,,,,male
GiyrC,9,20,fem_plain,fem_sws,2,jumper,rabbit,jumper,rabbit,jumper,fem_plain_fem_sws,critical,3/20/2017,11:07,right,false,4004,1,1_2_1_1,word_2_word_1,far,jumper,Clear_After,preschool,hanna,2014-05-26,,English,,,,,,male
GiyrC,9,20,fem_plain,fem_sws,3,jumper,rabbit,jumper,rabbit,jumper,fem_plain_fem_sws,critical,3/20/2017,11:07,left,false,2113,1,1_2_1_1,word_2_word_1,far,rabbit,Clear_After,preschool,hanna,2014-05-26,,English,,,,,,male
GiyrC,10,10,fem_plain,fem_sws,1,tshirt,pig,pig,pig,tshirt,fem_plain_fem_sws,critical,3/20/2017,11:07,right,true,3034,2,1_2_2_1,word_1_word_2,near,tshirt,Clear_After,preschool,hanna,2014-05-26,,English,,,,,,male
GiyrC,10,10,fem_plain,fem_sws,2,tshirt,pig,pig,pig,tshirt,fem_plain_fem_sws,critical,3/20/2017,11:07,right,false,3438,1,1_2_2_1,word_1_word_2,near,tshirt,Clear_After,preschool,hanna,2014-05-26,,English,,,,,,male
GiyrC,10,10,fem_plain,fem_sws,3,tshirt,pig,pig,pig,tshirt,fem_plain_fem_sws,critical,3/20/2017,11:07,left,true,2227,2,1_2_2_1,word_1_word_2,near,pig,Clear_After,preschool,hanna,2014-05-26,,English,,,,,,male
GiyrC,11,7,fem_plain,fem_sws,1,horse,lolly,lolly,lolly,horse,fem_plain_fem_sws,critical,3/20/2017,11:07,left,false,1923,2,2_1_1_1,word_1_word_2,near,lolly,Clear_After,preschool,hanna,2014-05-26,,English,,,,,,male
GiyrC,11,7,fem_plain,fem_sws,2,horse,lolly,lolly,lolly,horse,fem_plain_fem_sws,critical,3/20/2017,11:07,right,false,224,1,2_1_1_1,word_1_word_2,near,horse,Clear_After,preschool,hanna,2014-05-26,,English,,,,,,male
GiyrC,11,7,fem_plain,fem_sws,3,horse,lolly,lolly,lolly,horse,fem_plain_fem_sws,critical,3/20/2017,11:07,left,true,6202,2,2_1_1_1,word_1_word_2,near,lolly,Clear_After,preschool,hanna,2014-05-26,,English,,,,,,male
GiyrC,12,4,fem_plain,fem_sws,1,coat,strawberry,coat,coat,strawberry,fem_plain_fem_sws,critical,3/20/2017,11:07,left,true,996,4,2_1_2_1,word_1_word_2,far,coat,Clear_After,preschool,hanna,2014-05-26,,English,,,,,,male
GiyrC,12,4,fem_plain,fem_sws,2,coat,strawberry,coat,coat,strawberry,fem_plain_fem_sws,critical,3/20/2017,11:07,right,true,3499,2,2_1_2_1,word_1_word_2,far,strawberry,Clear_After,preschool,hanna,2014-05-26,,English,,,,,,male
GiyrC,12,4,fem_plain,fem_sws,3,coat,strawberry,coat,coat,strawberry,fem_plain_fem_sws,critical,3/20/2017,11:07,right,false,3266,1,2_1_2_1,word_1_word_2,far,strawberry,Clear_After,preschool,hanna,2014-05-26,,English,,,,,,male
GiyrC,13,11,fem_plain,fem_sws,1,lorry,book,lorry,book,lorry,fem_plain_fem_sws,critical,3/20/2017,11:07,left,false,3543,2,2_1_2_1,word_1_word_2,far,book,Clear_After,preschool,hanna,2014-05-26,,English,,,,,,male
GiyrC,13,11,fem_plain,fem_sws,2,lorry,book,lorry,book,lorry,fem_plain_fem_sws,critical,3/20/2017,11:07,left,true,4276,2,2_1_2_1,word_1_word_2,far,book,Clear_After,preschool,hanna,2014-05-26,,English,,,,,,male
GiyrC,13,11,fem_plain,fem_sws,3,lorry,book,lorry,book,lorry,fem_plain_fem_sws,critical,3/20/2017,11:07,left,false,3695,2,2_1_2_1,word_1_word_2,far,book,Clear_After,preschool,hanna,2014-05-26,,English,,,,,,male
GiyrC,14,24,fem_plain,fem_sws,1,sink,fish,fish,sink,fish,fem_plain_fem_sws,critical,3/20/2017,11:07,right,false,3265,2,2_1_1_1,word_1_word_2,near,fish,Clear_After,preschool,hanna,2014-05-26,,English,,,,,,male
GiyrC,14,24,fem_plain,fem_sws,2,sink,fish,fish,sink,fish,fem_plain_fem_sws,critical,3/20/2017,11:07,left,false,3883,2,2_1_1_1,word_1_word_2,near,sink,Clear_After,preschool,hanna,2014-05-26,,English,,,,,,male
GiyrC,14,24,fem_plain,fem_sws,3,sink,fish,fish,sink,fish,fem_plain_fem_sws,critical,3/20/2017,11:07,right,true,98,1,2_1_1_1,word_1_word_2,near,fish,Clear_After,preschool,hanna,2014-05-26,,English,,,,,,male
GiyrC,15,19,fem_plain,fem_sws,1,building_blocks,santa,building_blocks,building_blocks,santa,fem_plain_fem_sws,critical,3/20/2017,11:07,right,false,4408,4,1_2_1_1,word_2_word_1,far,santa,Clear_After,preschool,hanna,2014-05-26,,English,,,,,,male
GiyrC,15,19,fem_plain,fem_sws,2,building_blocks,santa,building_blocks,building_blocks,santa,fem_plain_fem_sws,critical,3/20/2017,11:07,left,false,3375,2,1_2_1_1,word_2_word_1,far,building_blocks,Clear_After,preschool,hanna,2014-05-26,,English,,,,,,male
GiyrC,15,19,fem_plain,fem_sws,3,building_blocks,santa,building_blocks,building_blocks,santa,fem_plain_fem_sws,critical,3/20/2017,11:07,right,false,3358,1,1_2_1_1,word_2_word_1,far,santa,Clear_After,preschool,hanna,2014-05-26,,English,,,,,,male
GiyrC,16,9,fem_plain,fem_sws,1,window,pizza,pizza,window,pizza,fem_plain_fem_sws,critical,3/20/2017,11:07,right,false,2007,2,2_1_1_1,word_2_word_1,near,pizza,Clear_After,preschool,hanna,2014-05-26,,English,,,,,,male
GiyrC,16,9,fem_plain,fem_sws,2,window,pizza,pizza,window,pizza,fem_plain_fem_sws,critical,3/20/2017,11:07,left,false,1472,2,2_1_1_1,word_2_word_1,near,window,Clear_After,preschool,hanna,2014-05-26,,English,,,,,,male
GiyrC,16,9,fem_plain,fem_sws,3,window,pizza,pizza,window,pizza,fem_plain_fem_sws,critical,3/20/2017,11:07,right,true,3238,1,2_1_1_1,word_2_word_1,near,pizza,Clear_After,preschool,hanna,2014-05-26,,English,,,,,,male
GiyrC,17,3,fem_plain,fem_sws,1,nose,trousers,nose,nose,trousers,fem_plain_fem_sws,critical,3/20/2017,11:07,right,false,5383,2,1_2_1_1,word_2_word_1,far,trousers,Clear_After,preschool,hanna,2014-05-26,,English,,,,,,male
GiyrC,17,3,fem_plain,fem_sws,2,nose,trousers,nose,nose,trousers,fem_plain_fem_sws,critical,3/20/2017,11:07,left,false,758,1,1_2_1_1,word_2_word_1,far,nose,Clear_After,preschool,hanna,2014-05-26,,English,,,,,,male
GiyrC,17,3,fem_plain,fem_sws,3,nose,trousers,nose,nose,trousers,fem_plain_fem_sws,critical,3/20/2017,11:07,right,false,2400,2,1_2_1_1,word_2_word_1,far,trousers,Clear_After,preschool,hanna,2014-05-26,,English,,,,,,male
GiyrC,18,8,fem_plain,fem_sws,1,wellyboots,fire_engine,wellyboots,fire_engine,wellyboots,fem_plain_fem_sws,critical,3/20/2017,11:07,right,true,2611,1,1_2_1_1,word_2_word_1,far,wellyboots,Clear_After,preschool,hanna,2014-05-26,,English,,,,,,male
GiyrC,18,8,fem_plain,fem_sws,2,wellyboots,fire_engine,wellyboots,fire_engine,wellyboots,fem_plain_fem_sws,critical,3/20/2017,11:07,left,true,2659,1,1_2_1_1,word_2_word_1,far,fire_engine,Clear_After,preschool,hanna,2014-05-26,,English,,,,,,male
GiyrC,18,8,fem_plain,fem_sws,3,wellyboots,fire_engine,wellyboots,fire_engine,wellyboots,fem_plain_fem_sws,critical,3/20/2017,11:07,left,false,3652,2,1_2_1_1,word_2_word_1,far,fire_engine,Clear_After,preschool,hanna,2014-05-26,,English,,,,,,male
GiyrC,19,5,fem_plain,fem_sws,1,orange,car,orange,car,orange,fem_plain_fem_sws,critical,3/20/2017,11:07,right,true,123,2,1_2_1_1,word_2_word_1,far,orange,Clear_After,preschool,hanna,2014-05-26,,English,,,,,,male
GiyrC,19,5,fem_plain,fem_sws,2,orange,car,orange,car,orange,fem_plain_fem_sws,critical,3/20/2017,11:07,left,true,992,2,1_2_1_1,word_2_word_1,far,car,Clear_After,preschool,hanna,2014-05-26,,English,,,,,,male
GiyrC,19,5,fem_plain,fem_sws,3,orange,car,orange,car,orange,fem_plain_fem_sws,critical,3/20/2017,11:07,right,true,826,2,1_2_1_1,word_2_word_1,far,orange,Clear_After,preschool,hanna,2014-05-26,,English,,,,,,male
GiyrC,20,6,fem_plain,fem_sws,1,bird,peas,bird,bird,peas,fem_plain_fem_sws,critical,3/20/2017,11:07,right,false,3210,2,2_1_2_1,word_1_word_2,far,peas,Clear_After,preschool,hanna,2014-05-26,,English,,,,,,male
GiyrC,20,6,fem_plain,fem_sws,2,bird,peas,bird,bird,peas,fem_plain_fem_sws,critical,3/20/2017,11:07,left,false,2884,2,2_1_2_1,word_1_word_2,far,bird,Clear_After,preschool,hanna,2014-05-26,,English,,,,,,male
GiyrC,20,6,fem_plain,fem_sws,3,bird,peas,bird,bird,peas,fem_plain_fem_sws,critical,3/20/2017,11:07,right,false,131,1,2_1_2_1,word_1_word_2,far,peas,Clear_After,preschool,hanna,2014-05-26,,English,,,,,,male
GiyrC,21,17,fem_plain,fem_sws,1,ambulance,cake,cake,cake,ambulance,fem_plain_fem_sws,critical,3/20/2017,11:07,left,false,4589,1,2_1_1_1,word_1_word_2,near,cake,Clear_After,preschool,hanna,2014-05-26,,English,,,,,,male
GiyrC,21,17,fem_plain,fem_sws,2,ambulance,cake,cake,cake,ambulance,fem_plain_fem_sws,critical,3/20/2017,11:07,right,false,2805,2,2_1_1_1,word_1_word_2,near,ambulance,Clear_After,preschool,hanna,2014-05-26,,English,,,,,,male
GiyrC,21,17,fem_plain,fem_sws,3,ambulance,cake,cake,cake,ambulance,fem_plain_fem_sws,critical,3/20/2017,11:07,left,true,4539,1,2_1_1_1,word_1_word_2,near,cake,Clear_After,preschool,hanna,2014-05-26,,English,,,,,,male
GiyrC,22,23,fem_plain,fem_sws,1,bath,teddy_bear,teddy_bear,bath,teddy_bear,fem_plain_fem_sws,critical,3/20/2017,11:07,left,true,4325,2,1_2_2_1,word_1_word_2,near,bath,Clear_After,preschool,hanna,2014-05-26,,English,,,,,,male
GiyrC,22,23,fem_plain,fem_sws,2,bath,teddy_bear,teddy_bear,bath,teddy_bear,fem_plain_fem_sws,critical,3/20/2017,11:07,left,false,3230,2,1_2_2_1,word_1_word_2,near,bath,Clear_After,preschool,hanna,2014-05-26,,English,,,,,,male
GiyrC,22,23,fem_plain,fem_sws,3,bath,teddy_bear,teddy_bear,bath,teddy_bear,fem_plain_fem_sws,critical,3/20/2017,11:07,right,true,3143,1,1_2_2_1,word_1_word_2,near,teddy_bear,Clear_After,preschool,hanna,2014-05-26,,English,,,,,,male
GiyrC,23,22,fem_plain,fem_sws,1,bike,dog,dog,dog,bike,fem_plain_fem_sws,critical,3/20/2017,11:07,right,true,5399,2,2_1_1_1,word_2_word_1,near,bike,Clear_After,preschool,hanna,2014-05-26,,English,,,,,,male
GiyrC,23,22,fem_plain,fem_sws,2,bike,dog,dog,dog,bike,fem_plain_fem_sws,critical,3/20/2017,11:07,right,false,2846,2,2_1_1_1,word_2_word_1,near,bike,Clear_After,preschool,hanna,2014-05-26,,English,,,,,,male
GiyrC,23,22,fem_plain,fem_sws,3,bike,dog,dog,dog,bike,fem_plain_fem_sws,critical,3/20/2017,11:07,left,true,2844,1,2_1_1_1,word_2_word_1,near,dog,Clear_After,preschool,hanna,2014-05-26,,English,,,,,,male
GiyrC,24,21,fem_plain,fem_sws,1,sheep,frog,frog,sheep,frog,fem_plain_fem_sws,critical,3/20/2017,11:07,right,false,1153,2,1_2_2_1,word_2_word_1,near,frog,Clear_After,preschool,hanna,2014-05-26,,English,,,,,,male
GiyrC,24,21,fem_plain,fem_sws,2,sheep,frog,frog,sheep,frog,fem_plain_fem_sws,critical,3/20/2017,11:07,left,false,2701,2,1_2_2_1,word_2_word_1,near,sheep,Clear_After,preschool,hanna,2014-05-26,,English,,,,,,male
GiyrC,24,21,fem_plain,fem_sws,3,sheep,frog,frog,sheep,frog,fem_plain_fem_sws,critical,3/20/2017,11:07,right,true,3967,1,1_2_2_1,word_2_word_1,near,frog,Clear_After,preschool,hanna,2014-05-26,,English,,,,,,male
GiyrC,25,12,fem_plain,fem_sws,1,yoghurt,foot,yoghurt,foot,yoghurt,fem_plain_fem_sws,critical,3/20/2017,11:07,right,true,2868,2,1_2_1_1,word_1_word_2,far,yoghurt,Clear_After,preschool,hanna,2014-05-26,,English,,,,,,male
GiyrC,25,12,fem_plain,fem_sws,2,yoghurt,foot,yoghurt,foot,yoghurt,fem_plain_fem_sws,critical,3/20/2017,11:07,left,true,40,1,1_2_1_1,word_1_word_2,far,foot,Clear_After,preschool,hanna,2014-05-26,,English,,,,,,male
GiyrC,25,12,fem_plain,fem_sws,3,yoghurt,foot,yoghurt,foot,yoghurt,fem_plain_fem_sws,critical,3/20/2017,11:07,right,true,1175,2,1_2_1_1,word_1_word_2,far,yoghurt,Clear_After,preschool,hanna,2014-05-26,,English,,,,,,male
