subject_id,trial_number,trial_id,plain,sws,instruction_number,sound1_item,sound2_item,sound3_item,left_image,right_image,sound_gender,trial_type,date_stamp,time_stamp,side_chosen,accuracy,rt,play_counter,order,pic_position,distance,chosen_pic,test_lang,testing_loc,tester,date_of_birth,ethnicity,native_lang,other_langs,parental_occ,dev_info,birth_order,num_siblings,gender
GLgCk,1,0,mal_plain,mal_sws,1,glasses,fireman,glasses,glasses,fireman,mal_plain_mal_sws,training,3/9/2017,14:38,left,true,5305,4,2_1_2_1,word_2_word_1,far,glasses,Clear_Before,preschool,hanna,2013-07-04,,English,,,,2,1,female
GLgCk,1,0,mal_plain,mal_sws,2,glasses,fireman,glasses,glasses,fireman,mal_plain_mal_sws,training,3/9/2017,14:38,right,true,5468,5,2_1_2_1,word_2_word_1,far,fireman,Clear_Before,preschool,hanna,2013-07-04,,English,,,,2,1,female
GLgCk,1,0,mal_plain,mal_sws,3,glasses,fireman,glasses,glasses,fireman,mal_plain_mal_sws,training,3/9/2017,14:38,left,true,7354,4,2_1_2_1,word_2_word_1,far,glasses,Clear_Before,preschool,hanna,2013-07-04,,English,,,,2,1,female
GLgCk,2,22,mal_plain,mal_sws,1,dog,bike,dog,dog,bike,mal_plain_mal_sws,critical,3/9/2017,14:38,left,true,6288,4,2_1_2_1,word_2_word_1,far,dog,Clear_Before,preschool,hanna,2013-07-04,,English,,,,2,1,female
GLgCk,2,22,mal_plain,mal_sws,2,dog,bike,dog,dog,bike,mal_plain_mal_sws,critical,3/9/2017,14:38,right,true,2725,4,2_1_2_1,word_2_word_1,far,bike,Clear_Before,preschool,hanna,2013-07-04,,English,,,,2,1,female
GLgCk,2,22,mal_plain,mal_sws,3,dog,bike,dog,dog,bike,mal_plain_mal_sws,critical,3/9/2017,14:38,left,true,6621,2,2_1_2_1,word_2_word_1,far,dog,Clear_Before,preschool,hanna,2013-07-04,,English,,,,2,1,female
GLgCk,3,12,mal_plain,mal_sws,1,yoghurt,foot,yoghurt,foot,yoghurt,mal_plain_mal_sws,critical,3/9/2017,14:38,right,true,3639,2,1_2_1_1,word_1_word_2,far,yoghurt,Clear_Before,preschool,hanna,2013-07-04,,English,,,,2,1,female
GLgCk,3,12,mal_plain,mal_sws,2,yoghurt,foot,yoghurt,foot,yoghurt,mal_plain_mal_sws,critical,3/9/2017,14:38,left,true,2819,1,1_2_1_1,word_1_word_2,far,foot,Clear_Before,preschool,hanna,2013-07-04,,English,,,,2,1,female
GLgCk,3,12,mal_plain,mal_sws,3,yoghurt,foot,yoghurt,foot,yoghurt,mal_plain_mal_sws,critical,3/9/2017,14:38,right,true,6915,4,1_2_1_1,word_1_word_2,far,yoghurt,Clear_Before,preschool,hanna,2013-07-04,,English,,,,2,1,female
GLgCk,4,23,mal_plain,mal_sws,1,teddy_bear,bath,teddy_bear,teddy_bear,bath,mal_plain_mal_sws,critical,3/9/2017,14:38,left,true,2774,2,1_2_1_1,word_2_word_1,far,teddy_bear,Clear_Before,preschool,hanna,2013-07-04,,English,,,,2,1,female
GLgCk,4,23,mal_plain,mal_sws,2,teddy_bear,bath,teddy_bear,teddy_bear,bath,mal_plain_mal_sws,critical,3/9/2017,14:38,right,true,2916,1,1_2_1_1,word_2_word_1,far,bath,Clear_Before,preschool,hanna,2013-07-04,,English,,,,2,1,female
GLgCk,4,23,mal_plain,mal_sws,3,teddy_bear,bath,teddy_bear,teddy_bear,bath,mal_plain_mal_sws,critical,3/9/2017,14:38,right,false,6856,2,1_2_1_1,word_2_word_1,far,bath,Clear_Before,preschool,hanna,2013-07-04,,English,,,,2,1,female
GLgCk,5,20,mal_plain,mal_sws,1,rabbit,jumper,jumper,jumper,rabbit,mal_plain_mal_sws,critical,3/9/2017,14:38,right,true,2171,2,2_1_1_1,word_1_word_2,near,rabbit,Clear_Before,preschool,hanna,2013-07-04,,English,,,,2,1,female
GLgCk,5,20,mal_plain,mal_sws,2,rabbit,jumper,jumper,jumper,rabbit,mal_plain_mal_sws,critical,3/9/2017,14:38,left,true,2414,1,2_1_1_1,word_1_word_2,near,jumper,Clear_Before,preschool,hanna,2013-07-04,,English,,,,2,1,female
GLgCk,5,20,mal_plain,mal_sws,3,rabbit,jumper,jumper,jumper,rabbit,mal_plain_mal_sws,critical,3/9/2017,14:38,right,false,11931,1,2_1_1_1,word_1_word_2,near,rabbit,Clear_Before,preschool,hanna,2013-07-04,,English,,,,2,1,female
GLgCk,6,3,mal_plain,mal_sws,1,nose,trousers,trousers,trousers,nose,mal_plain_mal_sws,critical,3/9/2017,14:38,right,true,2643,2,1_2_2_1,word_1_word_2,near,nose,Clear_Before,preschool,hanna,2013-07-04,,English,,,,2,1,female
GLgCk,6,3,mal_plain,mal_sws,2,nose,trousers,trousers,trousers,nose,mal_plain_mal_sws,critical,3/9/2017,14:38,left,true,2560,2,1_2_2_1,word_1_word_2,near,trousers,Clear_Before,preschool,hanna,2013-07-04,,English,,,,2,1,female
GLgCk,6,3,mal_plain,mal_sws,3,nose,trousers,trousers,trousers,nose,mal_plain_mal_sws,critical,3/9/2017,14:38,right,false,11159,2,1_2_2_1,word_1_word_2,near,nose,Clear_Before,preschool,hanna,2013-07-04,,English,,,,2,1,female
GLgCk,7,6,mal_plain,mal_sws,1,peas,bird,bird,peas,bird,mal_plain_mal_sws,critical,3/9/2017,14:38,left,true,2952,2,2_1_1_1,word_2_word_1,near,peas,Clear_Before,preschool,hanna,2013-07-04,,English,,,,2,1,female
GLgCk,7,6,mal_plain,mal_sws,2,peas,bird,bird,peas,bird,mal_plain_mal_sws,critical,3/9/2017,14:38,right,true,2661,2,2_1_1_1,word_2_word_1,near,bird,Clear_Before,preschool,hanna,2013-07-04,,English,,,,2,1,female
GLgCk,7,6,mal_plain,mal_sws,3,peas,bird,bird,peas,bird,mal_plain_mal_sws,critical,3/9/2017,14:38,right,true,7783,2,2_1_1_1,word_2_word_1,near,bird,Clear_Before,preschool,hanna,2013-07-04,,English,,,,2,1,female
GLgCk,8,11,mal_plain,mal_sws,1,lorry,book,lorry,lorry,book,mal_plain_mal_sws,critical,3/9/2017,14:38,right,false,2746,2,1_2_1_1,word_2_word_1,far,book,Clear_Before,preschool,hanna,2013-07-04,,English,,,,2,1,female
GLgCk,8,11,mal_plain,mal_sws,2,lorry,book,lorry,lorry,book,mal_plain_mal_sws,critical,3/9/2017,14:38,left,false,2717,1,1_2_1_1,word_2_word_1,far,lorry,Clear_Before,preschool,hanna,2013-07-04,,English,,,,2,1,female
GLgCk,8,11,mal_plain,mal_sws,3,lorry,book,lorry,lorry,book,mal_plain_mal_sws,critical,3/9/2017,14:38,left,true,6341,4,1_2_1_1,word_2_word_1,far,lorry,Clear_Before,preschool,hanna,2013-07-04,,English,,,,2,1,female
GLgCk,9,10,mal_plain,mal_sws,1,pig,tshirt,pig,pig,tshirt,mal_plain_mal_sws,critical,3/9/2017,14:38,left,true,2432,2,1_2_1_1,word_1_word_2,far,pig,Clear_Before,preschool,hanna,2013-07-04,,English,,,,2,1,female
GLgCk,9,10,mal_plain,mal_sws,2,pig,tshirt,pig,pig,tshirt,mal_plain_mal_sws,critical,3/9/2017,14:38,right,true,3243,1,1_2_1_1,word_1_word_2,far,tshirt,Clear_Before,preschool,hanna,2013-07-04,,English,,,,2,1,female
GLgCk,9,10,mal_plain,mal_sws,3,pig,tshirt,pig,pig,tshirt,mal_plain_mal_sws,critical,3/9/2017,14:38,left,true,5691,2,1_2_1_1,word_1_word_2,far,pig,Clear_Before,preschool,hanna,2013-07-04,,English,,,,2,1,female
GLgCk,10,8,mal_plain,mal_sws,1,fire_engine,wellyboots,wellyboots,fire_engine,wellyboots,mal_plain_mal_sws,critical,3/9/2017,14:38,left,true,3123,2,2_1_1_1,word_2_word_1,near,fire_engine,Clear_Before,preschool,hanna,2013-07-04,,English,,,,2,1,female
GLgCk,10,8,mal_plain,mal_sws,2,fire_engine,wellyboots,wellyboots,fire_engine,wellyboots,mal_plain_mal_sws,critical,3/9/2017,14:38,right,true,2623,2,2_1_1_1,word_2_word_1,near,wellyboots,Clear_Before,preschool,hanna,2013-07-04,,English,,,,2,1,female
GLgCk,10,8,mal_plain,mal_sws,3,fire_engine,wellyboots,wellyboots,fire_engine,wellyboots,mal_plain_mal_sws,critical,3/9/2017,14:38,right,true,5871,2,2_1_1_1,word_2_word_1,near,wellyboots,Clear_Before,preschool,hanna,2013-07-04,,English,,,,2,1,female
GLgCk,11,19,mal_plain,mal_sws,1,santa,building_blocks,santa,santa,building_blocks,mal_plain_mal_sws,critical,3/9/2017,14:38,left,true,3401,2,2_1_2_1,word_1_word_2,far,santa,Clear_Before,preschool,hanna,2013-07-04,,English,,,,2,1,female
GLgCk,11,19,mal_plain,mal_sws,2,santa,building_blocks,santa,santa,building_blocks,mal_plain_mal_sws,critical,3/9/2017,14:38,right,true,2146,2,2_1_2_1,word_1_word_2,far,building_blocks,Clear_Before,preschool,hanna,2013-07-04,,English,,,,2,1,female
GLgCk,11,19,mal_plain,mal_sws,3,santa,building_blocks,santa,santa,building_blocks,mal_plain_mal_sws,critical,3/9/2017,14:38,left,true,5376,2,2_1_2_1,word_1_word_2,far,santa,Clear_Before,preschool,hanna,2013-07-04,,English,,,,2,1,female
GLgCk,12,5,mal_plain,mal_sws,1,orange,car,orange,car,orange,mal_plain_mal_sws,critical,3/9/2017,14:38,right,true,3223,2,2_1_2_1,word_2_word_1,far,orange,Clear_Before,preschool,hanna,2013-07-04,,English,,,,2,1,female
GLgCk,12,5,mal_plain,mal_sws,2,orange,car,orange,car,orange,mal_plain_mal_sws,critical,3/9/2017,14:38,left,true,1705,1,2_1_2_1,word_2_word_1,far,car,Clear_Before,preschool,hanna,2013-07-04,,English,,,,2,1,female
GLgCk,12,5,mal_plain,mal_sws,3,orange,car,orange,car,orange,mal_plain_mal_sws,critical,3/9/2017,14:38,right,true,8978,2,2_1_2_1,word_2_word_1,far,orange,Clear_Before,preschool,hanna,2013-07-04,,English,,,,2,1,female
GLgCk,13,7,mal_plain,mal_sws,1,horse,lolly,lolly,lolly,horse,mal_plain_mal_sws,critical,3/9/2017,14:38,right,true,3588,2,2_1_1_1,word_1_word_2,near,horse,Clear_Before,preschool,hanna,2013-07-04,,English,,,,2,1,female
GLgCk,13,7,mal_plain,mal_sws,2,horse,lolly,lolly,lolly,horse,mal_plain_mal_sws,critical,3/9/2017,14:38,left,true,3112,1,2_1_1_1,word_1_word_2,near,lolly,Clear_Before,preschool,hanna,2013-07-04,,English,,,,2,1,female
GLgCk,13,7,mal_plain,mal_sws,3,horse,lolly,lolly,lolly,horse,mal_plain_mal_sws,critical,3/9/2017,14:38,left,true,7412,1,2_1_1_1,word_1_word_2,near,lolly,Clear_Before,preschool,hanna,2013-07-04,,English,,,,2,1,female
GLgCk,14,15,mal_plain,mal_sws,1,slide,pencil,pencil,pencil,slide,mal_plain_mal_sws,critical,3/9/2017,14:38,right,true,2719,2,1_2_2_1,word_2_word_1,near,slide,Clear_Before,preschool,hanna,2013-07-04,,English,,,,2,1,female
GLgCk,14,15,mal_plain,mal_sws,2,slide,pencil,pencil,pencil,slide,mal_plain_mal_sws,critical,3/9/2017,14:38,left,true,3010,1,1_2_2_1,word_2_word_1,near,pencil,Clear_Before,preschool,hanna,2013-07-04,,English,,,,2,1,female
GLgCk,14,15,mal_plain,mal_sws,3,slide,pencil,pencil,pencil,slide,mal_plain_mal_sws,critical,3/9/2017,14:38,right,false,5494,3,1_2_2_1,word_2_word_1,near,slide,Clear_Before,preschool,hanna,2013-07-04,,English,,,,2,1,female
GLgCk,15,18,mal_plain,mal_sws,1,raspberry,ball,ball,raspberry,ball,mal_plain_mal_sws,critical,3/9/2017,14:38,left,true,3275,2,1_2_2_1,word_2_word_1,near,raspberry,Clear_Before,preschool,hanna,2013-07-04,,English,,,,2,1,female
GLgCk,15,18,mal_plain,mal_sws,2,raspberry,ball,ball,raspberry,ball,mal_plain_mal_sws,critical,3/9/2017,14:38,right,true,3051,1,1_2_2_1,word_2_word_1,near,ball,Clear_Before,preschool,hanna,2013-07-04,,English,,,,2,1,female
GLgCk,15,18,mal_plain,mal_sws,3,raspberry,ball,ball,raspberry,ball,mal_plain_mal_sws,critical,3/9/2017,14:38,left,false,6695,1,1_2_2_1,word_2_word_1,near,raspberry,Clear_Before,preschool,hanna,2013-07-04,,English,,,,2,1,female
GLgCk,16,16,mal_plain,mal_sws,1,paintbrush,banana,paintbrush,paintbrush,banana,mal_plain_mal_sws,critical,3/9/2017,14:38,left,true,3048,2,1_2_1_1,word_1_word_2,far,paintbrush,Clear_Before,preschool,hanna,2013-07-04,,English,,,,2,1,female
GLgCk,16,16,mal_plain,mal_sws,2,paintbrush,banana,paintbrush,paintbrush,banana,mal_plain_mal_sws,critical,3/9/2017,14:38,right,true,2002,1,1_2_1_1,word_1_word_2,far,banana,Clear_Before,preschool,hanna,2013-07-04,,English,,,,2,1,female
GLgCk,16,16,mal_plain,mal_sws,3,paintbrush,banana,paintbrush,paintbrush,banana,mal_plain_mal_sws,critical,3/9/2017,14:38,right,false,6490,1,1_2_1_1,word_1_word_2,far,banana,Clear_Before,preschool,hanna,2013-07-04,,English,,,,2,1,female
GLgCk,17,14,mal_plain,mal_sws,1,cheese,shoes,shoes,cheese,shoes,mal_plain_mal_sws,critical,3/9/2017,14:38,left,true,2477,2,1_2_2_1,word_1_word_2,near,cheese,Clear_Before,preschool,hanna,2013-07-04,,English,,,,2,1,female
GLgCk,17,14,mal_plain,mal_sws,2,cheese,shoes,shoes,cheese,shoes,mal_plain_mal_sws,critical,3/9/2017,14:38,right,true,2296,2,1_2_2_1,word_1_word_2,near,shoes,Clear_Before,preschool,hanna,2013-07-04,,English,,,,2,1,female
GLgCk,17,14,mal_plain,mal_sws,3,cheese,shoes,shoes,cheese,shoes,mal_plain_mal_sws,critical,3/9/2017,14:38,left,false,6983,1,1_2_2_1,word_1_word_2,near,cheese,Clear_Before,preschool,hanna,2013-07-04,,English,,,,2,1,female
GLgCk,18,17,mal_plain,mal_sws,1,ambulance,cake,cake,cake,ambulance,mal_plain_mal_sws,critical,3/9/2017,14:38,left,false,4253,4,2_1_1_1,word_1_word_2,near,cake,Clear_Before,preschool,hanna,2013-07-04,,English,,,,2,1,female
GLgCk,18,17,mal_plain,mal_sws,2,ambulance,cake,cake,cake,ambulance,mal_plain_mal_sws,critical,3/9/2017,14:38,right,false,3082,4,2_1_1_1,word_1_word_2,near,ambulance,Clear_Before,preschool,hanna,2013-07-04,,English,,,,2,1,female
GLgCk,18,17,mal_plain,mal_sws,3,ambulance,cake,cake,cake,ambulance,mal_plain_mal_sws,critical,3/9/2017,14:38,left,true,3157,1,2_1_1_1,word_1_word_2,near,cake,Clear_Before,preschool,hanna,2013-07-04,,English,,,,2,1,female
GLgCk,19,13,mal_plain,mal_sws,1,toothbrush,airplane,toothbrush,airplane,toothbrush,mal_plain_mal_sws,critical,3/9/2017,14:38,right,true,7393,2,2_1_2_1,word_2_word_1,far,toothbrush,Clear_Before,preschool,hanna,2013-07-04,,English,,,,2,1,female
GLgCk,19,13,mal_plain,mal_sws,2,toothbrush,airplane,toothbrush,airplane,toothbrush,mal_plain_mal_sws,critical,3/9/2017,14:38,right,false,3477,2,2_1_2_1,word_2_word_1,far,toothbrush,Clear_Before,preschool,hanna,2013-07-04,,English,,,,2,1,female
GLgCk,19,13,mal_plain,mal_sws,3,toothbrush,airplane,toothbrush,airplane,toothbrush,mal_plain_mal_sws,critical,3/9/2017,14:38,left,false,3416,1,2_1_2_1,word_2_word_1,far,airplane,Clear_Before,preschool,hanna,2013-07-04,,English,,,,2,1,female
GLgCk,20,24,mal_plain,mal_sws,1,fish,sink,sink,fish,sink,mal_plain_mal_sws,critical,3/9/2017,14:38,right,false,8663,2,1_2_2_1,word_2_word_1,near,sink,Clear_Before,preschool,hanna,2013-07-04,,English,,,,2,1,female
GLgCk,20,24,mal_plain,mal_sws,2,fish,sink,sink,fish,sink,mal_plain_mal_sws,critical,3/9/2017,14:38,left,false,2535,2,1_2_2_1,word_2_word_1,near,fish,Clear_Before,preschool,hanna,2013-07-04,,English,,,,2,1,female
GLgCk,20,24,mal_plain,mal_sws,3,fish,sink,sink,fish,sink,mal_plain_mal_sws,critical,3/9/2017,14:38,right,true,2846,2,1_2_2_1,word_2_word_1,near,sink,Clear_Before,preschool,hanna,2013-07-04,,English,,,,2,1,female
GLgCk,21,9,mal_plain,mal_sws,1,window,pizza,window,pizza,window,mal_plain_mal_sws,critical,3/9/2017,14:38,right,true,4643,4,1_2_1_1,word_1_word_2,far,window,Clear_Before,preschool,hanna,2013-07-04,,English,,,,2,1,female
GLgCk,21,9,mal_plain,mal_sws,2,window,pizza,window,pizza,window,mal_plain_mal_sws,critical,3/9/2017,14:38,right,false,2661,2,1_2_1_1,word_1_word_2,far,window,Clear_Before,preschool,hanna,2013-07-04,,English,,,,2,1,female
GLgCk,21,9,mal_plain,mal_sws,3,window,pizza,window,pizza,window,mal_plain_mal_sws,critical,3/9/2017,14:38,left,false,2190,2,1_2_1_1,word_1_word_2,far,pizza,Clear_Before,preschool,hanna,2013-07-04,,English,,,,2,1,female
GLgCk,22,2,mal_plain,mal_sws,1,bed,chicken,bed,chicken,bed,mal_plain_mal_sws,critical,3/9/2017,14:38,right,true,1112,4,2_1_2_1,word_2_word_1,far,bed,Clear_Before,preschool,hanna,2013-07-04,,English,,,,2,1,female
GLgCk,22,2,mal_plain,mal_sws,2,bed,chicken,bed,chicken,bed,mal_plain_mal_sws,critical,3/9/2017,14:38,right,false,2783,2,2_1_2_1,word_2_word_1,far,bed,Clear_Before,preschool,hanna,2013-07-04,,English,,,,2,1,female
GLgCk,22,2,mal_plain,mal_sws,3,bed,chicken,bed,chicken,bed,mal_plain_mal_sws,critical,3/9/2017,14:38,left,false,2703,2,2_1_2_1,word_2_word_1,far,chicken,Clear_Before,preschool,hanna,2013-07-04,,English,,,,2,1,female
GLgCk,23,4,mal_plain,mal_sws,1,strawberry,coat,coat,strawberry,coat,mal_plain_mal_sws,critical,3/9/2017,14:38,left,true,5698,4,2_1_1_1,word_2_word_1,near,strawberry,Clear_Before,preschool,hanna,2013-07-04,,English,,,,2,1,female
GLgCk,23,4,mal_plain,mal_sws,2,strawberry,coat,coat,strawberry,coat,mal_plain_mal_sws,critical,3/9/2017,14:38,left,false,2578,1,2_1_1_1,word_2_word_1,near,strawberry,Clear_Before,preschool,hanna,2013-07-04,,English,,,,2,1,female
GLgCk,23,4,mal_plain,mal_sws,3,strawberry,coat,coat,strawberry,coat,mal_plain_mal_sws,critical,3/9/2017,14:38,right,true,2433,2,2_1_1_1,word_2_word_1,near,coat,Clear_Before,preschool,hanna,2013-07-04,,English,,,,2,1,female
GLgCk,24,21,mal_plain,mal_sws,1,frog,sheep,sheep,frog,sheep,mal_plain_mal_sws,critical,3/9/2017,14:38,left,true,4687,4,1_2_2_1,word_1_word_2,near,frog,Clear_Before,preschool,hanna,2013-07-04,,English,,,,2,1,female
GLgCk,24,21,mal_plain,mal_sws,2,frog,sheep,sheep,frog,sheep,mal_plain_mal_sws,critical,3/9/2017,14:38,left,false,3660,2,1_2_2_1,word_1_word_2,near,frog,Clear_Before,preschool,hanna,2013-07-04,,English,,,,2,1,female
GLgCk,24,21,mal_plain,mal_sws,3,frog,sheep,sheep,frog,sheep,mal_plain_mal_sws,critical,3/9/2017,14:38,right,true,3323,1,1_2_2_1,word_1_word_2,near,sheep,Clear_Before,preschool,hanna,2013-07-04,,English,,,,2,1,female
GLgCk,25,1,mal_plain,mal_sws,1,spoon,baby,spoon,baby,spoon,mal_plain_mal_sws,critical,3/9/2017,14:38,left,false,6550,2,1_2_1_1,word_2_word_1,far,baby,Clear_Before,preschool,hanna,2013-07-04,,English,,,,2,1,female
GLgCk,25,1,mal_plain,mal_sws,2,spoon,baby,spoon,baby,spoon,mal_plain_mal_sws,critical,3/9/2017,14:38,right,false,4999,1,1_2_1_1,word_2_word_1,far,spoon,Clear_Before,preschool,hanna,2013-07-04,,English,,,,2,1,female
GLgCk,25,1,mal_plain,mal_sws,3,spoon,baby,spoon,baby,spoon,mal_plain_mal_sws,critical,3/9/2017,14:38,left,false,3874,2,1_2_1_1,word_2_word_1,far,baby,Clear_Before,preschool,hanna,2013-07-04,,English,,,,2,1,female
