subject_id,trial_number,trial_id,plain,sws,instruction_number,sound1_item,sound2_item,sound3_item,left_image,right_image,sound_gender,trial_type,date_stamp,time_stamp,side_chosen,accuracy,rt,play_counter,order,pic_position,distance,chosen_pic,test_lang,testing_loc,tester,date_of_birth,ethnicity,native_lang,other_langs,parental_occ,dev_info,birth_order,num_siblings,gender
GtOkN,1,0,mal_plain,mal_sws,1,glasses,fireman,glasses,glasses,fireman,mal_plain_mal_sws,training,3/22/2017,15:14,left,true,8376,2,2_1_2_1,word_2_word_1,far,glasses,Clear_Before,preschool,hanna,2012-05-05,,English,,,,2,1,male
GtOkN,1,0,mal_plain,mal_sws,2,glasses,fireman,glasses,glasses,fireman,mal_plain_mal_sws,training,3/22/2017,15:14,right,true,2436,1,2_1_2_1,word_2_word_1,far,fireman,Clear_Before,preschool,hanna,2012-05-05,,English,,,,2,1,male
GtOkN,1,0,mal_plain,mal_sws,3,glasses,fireman,glasses,glasses,fireman,mal_plain_mal_sws,training,3/22/2017,15:14,left,true,5113,4,2_1_2_1,word_2_word_1,far,glasses,Clear_Before,preschool,hanna,2012-05-05,,English,,,,2,1,male
GtOkN,2,17,mal_plain,mal_sws,1,cake,ambulance,cake,cake,ambulance,mal_plain_mal_sws,critical,3/22/2017,15:14,left,true,2433,3,1_2_1_1,word_1_word_2,far,cake,Clear_Before,preschool,hanna,2012-05-05,,English,,,,2,1,male
GtOkN,2,17,mal_plain,mal_sws,2,cake,ambulance,cake,cake,ambulance,mal_plain_mal_sws,critical,3/22/2017,15:14,right,true,2404,3,1_2_1_1,word_1_word_2,far,ambulance,Clear_Before,preschool,hanna,2012-05-05,,English,,,,2,1,male
GtOkN,2,17,mal_plain,mal_sws,3,cake,ambulance,cake,cake,ambulance,mal_plain_mal_sws,critical,3/22/2017,15:14,left,true,7078,4,1_2_1_1,word_1_word_2,far,cake,Clear_Before,preschool,hanna,2012-05-05,,English,,,,2,1,male
GtOkN,3,22,mal_plain,mal_sws,1,dog,bike,bike,bike,dog,mal_plain_mal_sws,critical,3/22/2017,15:14,right,true,1884,2,1_2_2_1,word_1_word_2,near,dog,Clear_Before,preschool,hanna,2012-05-05,,English,,,,2,1,male
GtOkN,3,22,mal_plain,mal_sws,2,dog,bike,bike,bike,dog,mal_plain_mal_sws,critical,3/22/2017,15:14,left,true,2301,1,1_2_2_1,word_1_word_2,near,bike,Clear_Before,preschool,hanna,2012-05-05,,English,,,,2,1,male
GtOkN,3,22,mal_plain,mal_sws,3,dog,bike,bike,bike,dog,mal_plain_mal_sws,critical,3/22/2017,15:14,right,false,6172,1,1_2_2_1,word_1_word_2,near,dog,Clear_Before,preschool,hanna,2012-05-05,,English,,,,2,1,male
GtOkN,4,20,mal_plain,mal_sws,1,rabbit,jumper,jumper,rabbit,jumper,mal_plain_mal_sws,critical,3/22/2017,15:14,left,true,1967,2,2_1_1_1,word_2_word_1,near,rabbit,Clear_Before,preschool,hanna,2012-05-05,,English,,,,2,1,male
GtOkN,4,20,mal_plain,mal_sws,2,rabbit,jumper,jumper,rabbit,jumper,mal_plain_mal_sws,critical,3/22/2017,15:14,right,true,1899,1,2_1_1_1,word_2_word_1,near,jumper,Clear_Before,preschool,hanna,2012-05-05,,English,,,,2,1,male
GtOkN,4,20,mal_plain,mal_sws,3,rabbit,jumper,jumper,rabbit,jumper,mal_plain_mal_sws,critical,3/22/2017,15:14,left,false,1699,2,2_1_1_1,word_2_word_1,near,rabbit,Clear_Before,preschool,hanna,2012-05-05,,English,,,,2,1,male
GtOkN,5,2,mal_plain,mal_sws,1,chicken,bed,bed,chicken,bed,mal_plain_mal_sws,critical,3/22/2017,15:14,left,true,2514,2,1_2_2_1,word_2_word_1,near,chicken,Clear_Before,preschool,hanna,2012-05-05,,English,,,,2,1,male
GtOkN,5,2,mal_plain,mal_sws,2,chicken,bed,bed,chicken,bed,mal_plain_mal_sws,critical,3/22/2017,15:14,right,true,2063,2,1_2_2_1,word_2_word_1,near,bed,Clear_Before,preschool,hanna,2012-05-05,,English,,,,2,1,male
GtOkN,5,2,mal_plain,mal_sws,3,chicken,bed,bed,chicken,bed,mal_plain_mal_sws,critical,3/22/2017,15:14,left,false,4040,2,1_2_2_1,word_2_word_1,near,chicken,Clear_Before,preschool,hanna,2012-05-05,,English,,,,2,1,male
GtOkN,6,9,mal_plain,mal_sws,1,pizza,window,window,window,pizza,mal_plain_mal_sws,critical,3/22/2017,15:14,right,true,2098,2,2_1_1_1,word_2_word_1,near,pizza,Clear_Before,preschool,hanna,2012-05-05,,English,,,,2,1,male
GtOkN,6,9,mal_plain,mal_sws,2,pizza,window,window,window,pizza,mal_plain_mal_sws,critical,3/22/2017,15:14,left,true,1549,1,2_1_1_1,word_2_word_1,near,window,Clear_Before,preschool,hanna,2012-05-05,,English,,,,2,1,male
GtOkN,6,9,mal_plain,mal_sws,3,pizza,window,window,window,pizza,mal_plain_mal_sws,critical,3/22/2017,15:14,right,false,3126,1,2_1_1_1,word_2_word_1,near,pizza,Clear_Before,preschool,hanna,2012-05-05,,English,,,,2,1,male
GtOkN,7,23,mal_plain,mal_sws,1,bath,teddy_bear,bath,teddy_bear,bath,mal_plain_mal_sws,critical,3/22/2017,15:14,right,true,2186,2,1_2_1_1,word_2_word_1,far,bath,Clear_Before,preschool,hanna,2012-05-05,,English,,,,2,1,male
GtOkN,7,23,mal_plain,mal_sws,2,bath,teddy_bear,bath,teddy_bear,bath,mal_plain_mal_sws,critical,3/22/2017,15:14,left,true,1523,2,1_2_1_1,word_2_word_1,far,teddy_bear,Clear_Before,preschool,hanna,2012-05-05,,English,,,,2,1,male
GtOkN,7,23,mal_plain,mal_sws,3,bath,teddy_bear,bath,teddy_bear,bath,mal_plain_mal_sws,critical,3/22/2017,15:14,right,true,4716,2,1_2_1_1,word_2_word_1,far,bath,Clear_Before,preschool,hanna,2012-05-05,,English,,,,2,1,male
GtOkN,8,19,mal_plain,mal_sws,1,building_blocks,santa,santa,building_blocks,santa,mal_plain_mal_sws,critical,3/22/2017,15:14,left,true,2346,2,1_2_2_1,word_2_word_1,near,building_blocks,Clear_Before,preschool,hanna,2012-05-05,,English,,,,2,1,male
GtOkN,8,19,mal_plain,mal_sws,2,building_blocks,santa,santa,building_blocks,santa,mal_plain_mal_sws,critical,3/22/2017,15:14,right,true,2122,1,1_2_2_1,word_2_word_1,near,santa,Clear_Before,preschool,hanna,2012-05-05,,English,,,,2,1,male
GtOkN,8,19,mal_plain,mal_sws,3,building_blocks,santa,santa,building_blocks,santa,mal_plain_mal_sws,critical,3/22/2017,15:14,left,false,5588,2,1_2_2_1,word_2_word_1,near,building_blocks,Clear_Before,preschool,hanna,2012-05-05,,English,,,,2,1,male
GtOkN,9,24,mal_plain,mal_sws,1,sink,fish,sink,sink,fish,mal_plain_mal_sws,critical,3/22/2017,15:14,left,true,3103,2,2_1_2_1,word_1_word_2,far,sink,Clear_Before,preschool,hanna,2012-05-05,,English,,,,2,1,male
GtOkN,9,24,mal_plain,mal_sws,2,sink,fish,sink,sink,fish,mal_plain_mal_sws,critical,3/22/2017,15:14,right,true,1796,1,2_1_2_1,word_1_word_2,far,fish,Clear_Before,preschool,hanna,2012-05-05,,English,,,,2,1,male
GtOkN,9,24,mal_plain,mal_sws,3,sink,fish,sink,sink,fish,mal_plain_mal_sws,critical,3/22/2017,15:14,left,true,3364,2,2_1_2_1,word_1_word_2,far,sink,Clear_Before,preschool,hanna,2012-05-05,,English,,,,2,1,male
GtOkN,10,10,mal_plain,mal_sws,1,tshirt,pig,pig,pig,tshirt,mal_plain_mal_sws,critical,3/22/2017,15:14,right,true,2700,2,1_2_2_1,word_1_word_2,near,tshirt,Clear_Before,preschool,hanna,2012-05-05,,English,,,,2,1,male
GtOkN,10,10,mal_plain,mal_sws,2,tshirt,pig,pig,pig,tshirt,mal_plain_mal_sws,critical,3/22/2017,15:14,left,true,2010,1,1_2_2_1,word_1_word_2,near,pig,Clear_Before,preschool,hanna,2012-05-05,,English,,,,2,1,male
GtOkN,10,10,mal_plain,mal_sws,3,tshirt,pig,pig,pig,tshirt,mal_plain_mal_sws,critical,3/22/2017,15:14,right,false,5872,2,1_2_2_1,word_1_word_2,near,tshirt,Clear_Before,preschool,hanna,2012-05-05,,English,,,,2,1,male
GtOkN,11,14,mal_plain,mal_sws,1,cheese,shoes,cheese,shoes,cheese,mal_plain_mal_sws,critical,3/22/2017,15:14,right,true,2590,2,2_1_2_1,word_2_word_1,far,cheese,Clear_Before,preschool,hanna,2012-05-05,,English,,,,2,1,male
GtOkN,11,14,mal_plain,mal_sws,2,cheese,shoes,cheese,shoes,cheese,mal_plain_mal_sws,critical,3/22/2017,15:14,left,true,1656,1,2_1_2_1,word_2_word_1,far,shoes,Clear_Before,preschool,hanna,2012-05-05,,English,,,,2,1,male
GtOkN,11,14,mal_plain,mal_sws,3,cheese,shoes,cheese,shoes,cheese,mal_plain_mal_sws,critical,3/22/2017,15:14,right,true,5416,1,2_1_2_1,word_2_word_1,far,cheese,Clear_Before,preschool,hanna,2012-05-05,,English,,,,2,1,male
GtOkN,12,3,mal_plain,mal_sws,1,trousers,nose,trousers,trousers,nose,mal_plain_mal_sws,critical,3/22/2017,15:14,left,true,2120,2,2_1_2_1,word_1_word_2,far,trousers,Clear_Before,preschool,hanna,2012-05-05,,English,,,,2,1,male
GtOkN,12,3,mal_plain,mal_sws,2,trousers,nose,trousers,trousers,nose,mal_plain_mal_sws,critical,3/22/2017,15:14,right,true,2057,1,2_1_2_1,word_1_word_2,far,nose,Clear_Before,preschool,hanna,2012-05-05,,English,,,,2,1,male
GtOkN,12,3,mal_plain,mal_sws,3,trousers,nose,trousers,trousers,nose,mal_plain_mal_sws,critical,3/22/2017,15:14,left,true,6617,2,2_1_2_1,word_1_word_2,far,trousers,Clear_Before,preschool,hanna,2012-05-05,,English,,,,2,1,male
GtOkN,13,8,mal_plain,mal_sws,1,fire_engine,wellyboots,wellyboots,fire_engine,wellyboots,mal_plain_mal_sws,critical,3/22/2017,15:14,left,true,2595,2,1_2_2_1,word_2_word_1,near,fire_engine,Clear_Before,preschool,hanna,2012-05-05,,English,,,,2,1,male
GtOkN,13,8,mal_plain,mal_sws,2,fire_engine,wellyboots,wellyboots,fire_engine,wellyboots,mal_plain_mal_sws,critical,3/22/2017,15:14,right,true,1813,1,1_2_2_1,word_2_word_1,near,wellyboots,Clear_Before,preschool,hanna,2012-05-05,,English,,,,2,1,male
GtOkN,13,8,mal_plain,mal_sws,3,fire_engine,wellyboots,wellyboots,fire_engine,wellyboots,mal_plain_mal_sws,critical,3/22/2017,15:14,left,false,5942,2,1_2_2_1,word_2_word_1,near,fire_engine,Clear_Before,preschool,hanna,2012-05-05,,English,,,,2,1,male
GtOkN,14,4,mal_plain,mal_sws,1,strawberry,coat,coat,strawberry,coat,mal_plain_mal_sws,critical,3/22/2017,15:14,left,true,2136,2,2_1_1_1,word_2_word_1,near,strawberry,Clear_Before,preschool,hanna,2012-05-05,,English,,,,2,1,male
GtOkN,14,4,mal_plain,mal_sws,2,strawberry,coat,coat,strawberry,coat,mal_plain_mal_sws,critical,3/22/2017,15:14,right,true,1837,1,2_1_1_1,word_2_word_1,near,coat,Clear_Before,preschool,hanna,2012-05-05,,English,,,,2,1,male
GtOkN,14,4,mal_plain,mal_sws,3,strawberry,coat,coat,strawberry,coat,mal_plain_mal_sws,critical,3/22/2017,15:14,left,false,4523,1,2_1_1_1,word_2_word_1,near,strawberry,Clear_Before,preschool,hanna,2012-05-05,,English,,,,2,1,male
GtOkN,15,6,mal_plain,mal_sws,1,bird,peas,bird,peas,bird,mal_plain_mal_sws,critical,3/22/2017,15:14,right,true,1985,2,2_1_2_1,word_2_word_1,far,bird,Clear_Before,preschool,hanna,2012-05-05,,English,,,,2,1,male
GtOkN,15,6,mal_plain,mal_sws,2,bird,peas,bird,peas,bird,mal_plain_mal_sws,critical,3/22/2017,15:14,left,true,1543,1,2_1_2_1,word_2_word_1,far,peas,Clear_Before,preschool,hanna,2012-05-05,,English,,,,2,1,male
GtOkN,15,6,mal_plain,mal_sws,3,bird,peas,bird,peas,bird,mal_plain_mal_sws,critical,3/22/2017,15:14,right,true,4198,1,2_1_2_1,word_2_word_1,far,bird,Clear_Before,preschool,hanna,2012-05-05,,English,,,,2,1,male
GtOkN,16,13,mal_plain,mal_sws,1,toothbrush,airplane,airplane,toothbrush,airplane,mal_plain_mal_sws,critical,3/22/2017,15:14,left,true,2527,2,1_2_2_1,word_1_word_2,near,toothbrush,Clear_Before,preschool,hanna,2012-05-05,,English,,,,2,1,male
GtOkN,16,13,mal_plain,mal_sws,2,toothbrush,airplane,airplane,toothbrush,airplane,mal_plain_mal_sws,critical,3/22/2017,15:14,right,true,2014,1,1_2_2_1,word_1_word_2,near,airplane,Clear_Before,preschool,hanna,2012-05-05,,English,,,,2,1,male
GtOkN,16,13,mal_plain,mal_sws,3,toothbrush,airplane,airplane,toothbrush,airplane,mal_plain_mal_sws,critical,3/22/2017,15:14,left,false,2318,2,1_2_2_1,word_1_word_2,near,toothbrush,Clear_Before,preschool,hanna,2012-05-05,,English,,,,2,1,male
GtOkN,17,21,mal_plain,mal_sws,1,sheep,frog,sheep,sheep,frog,mal_plain_mal_sws,critical,3/22/2017,15:14,left,true,2197,2,2_1_2_1,word_2_word_1,far,sheep,Clear_Before,preschool,hanna,2012-05-05,,English,,,,2,1,male
GtOkN,17,21,mal_plain,mal_sws,2,sheep,frog,sheep,sheep,frog,mal_plain_mal_sws,critical,3/22/2017,15:14,right,true,2019,1,2_1_2_1,word_2_word_1,far,frog,Clear_Before,preschool,hanna,2012-05-05,,English,,,,2,1,male
GtOkN,17,21,mal_plain,mal_sws,3,sheep,frog,sheep,sheep,frog,mal_plain_mal_sws,critical,3/22/2017,15:14,left,true,1844,2,2_1_2_1,word_2_word_1,far,sheep,Clear_Before,preschool,hanna,2012-05-05,,English,,,,2,1,male
GtOkN,18,1,mal_plain,mal_sws,1,baby,spoon,spoon,spoon,baby,mal_plain_mal_sws,critical,3/22/2017,15:14,left,false,2358,4,2_1_1_1,word_1_word_2,near,spoon,Clear_Before,preschool,hanna,2012-05-05,,English,,,,2,1,male
GtOkN,18,1,mal_plain,mal_sws,2,baby,spoon,spoon,spoon,baby,mal_plain_mal_sws,critical,3/22/2017,15:14,right,false,1936,2,2_1_1_1,word_1_word_2,near,baby,Clear_Before,preschool,hanna,2012-05-05,,English,,,,2,1,male
GtOkN,18,1,mal_plain,mal_sws,3,baby,spoon,spoon,spoon,baby,mal_plain_mal_sws,critical,3/22/2017,15:14,left,true,2037,1,2_1_1_1,word_1_word_2,near,spoon,Clear_Before,preschool,hanna,2012-05-05,,English,,,,2,1,male
GtOkN,19,15,mal_plain,mal_sws,1,pencil,slide,pencil,pencil,slide,mal_plain_mal_sws,critical,3/22/2017,15:14,left,true,2389,2,1_2_1_1,word_2_word_1,far,pencil,Clear_Before,preschool,hanna,2012-05-05,,English,,,,2,1,male
GtOkN,19,15,mal_plain,mal_sws,2,pencil,slide,pencil,pencil,slide,mal_plain_mal_sws,critical,3/22/2017,15:14,left,false,2244,1,1_2_1_1,word_2_word_1,far,pencil,Clear_Before,preschool,hanna,2012-05-05,,English,,,,2,1,male
GtOkN,19,15,mal_plain,mal_sws,3,pencil,slide,pencil,pencil,slide,mal_plain_mal_sws,critical,3/22/2017,15:14,right,false,2208,1,1_2_1_1,word_2_word_1,far,slide,Clear_Before,preschool,hanna,2012-05-05,,English,,,,2,1,male
GtOkN,20,12,mal_plain,mal_sws,1,yoghurt,foot,yoghurt,yoghurt,foot,mal_plain_mal_sws,critical,3/22/2017,15:14,right,false,5473,3,1_2_1_1,word_2_word_1,far,foot,Clear_Before,preschool,hanna,2012-05-05,,English,,,,2,1,male
GtOkN,20,12,mal_plain,mal_sws,2,yoghurt,foot,yoghurt,yoghurt,foot,mal_plain_mal_sws,critical,3/22/2017,15:14,left,false,2089,1,1_2_1_1,word_2_word_1,far,yoghurt,Clear_Before,preschool,hanna,2012-05-05,,English,,,,2,1,male
GtOkN,20,12,mal_plain,mal_sws,3,yoghurt,foot,yoghurt,yoghurt,foot,mal_plain_mal_sws,critical,3/22/2017,15:14,left,true,2690,1,1_2_1_1,word_2_word_1,far,yoghurt,Clear_Before,preschool,hanna,2012-05-05,,English,,,,2,1,male
GtOkN,21,18,mal_plain,mal_sws,1,ball,raspberry,ball,raspberry,ball,mal_plain_mal_sws,critical,3/22/2017,15:14,right,true,2897,2,1_2_1_1,word_2_word_1,far,ball,Clear_Before,preschool,hanna,2012-05-05,,English,,,,2,1,male
GtOkN,21,18,mal_plain,mal_sws,2,ball,raspberry,ball,raspberry,ball,mal_plain_mal_sws,critical,3/22/2017,15:14,right,false,2771,1,1_2_1_1,word_2_word_1,far,ball,Clear_Before,preschool,hanna,2012-05-05,,English,,,,2,1,male
GtOkN,21,18,mal_plain,mal_sws,3,ball,raspberry,ball,raspberry,ball,mal_plain_mal_sws,critical,3/22/2017,15:14,left,false,2759,2,1_2_1_1,word_2_word_1,far,raspberry,Clear_Before,preschool,hanna,2012-05-05,,English,,,,2,1,male
GtOkN,22,7,mal_plain,mal_sws,1,lolly,horse,horse,horse,lolly,mal_plain_mal_sws,critical,3/22/2017,15:14,left,false,4617,2,2_1_1_1,word_2_word_1,near,horse,Clear_Before,preschool,hanna,2012-05-05,,English,,,,2,1,male
GtOkN,22,7,mal_plain,mal_sws,2,lolly,horse,horse,horse,lolly,mal_plain_mal_sws,critical,3/22/2017,15:14,right,false,2534,1,2_1_1_1,word_2_word_1,near,lolly,Clear_Before,preschool,hanna,2012-05-05,,English,,,,2,1,male
GtOkN,22,7,mal_plain,mal_sws,3,lolly,horse,horse,horse,lolly,mal_plain_mal_sws,critical,3/22/2017,15:14,left,true,2458,1,2_1_1_1,word_2_word_1,near,horse,Clear_Before,preschool,hanna,2012-05-05,,English,,,,2,1,male
GtOkN,23,11,mal_plain,mal_sws,1,lorry,book,lorry,book,lorry,mal_plain_mal_sws,critical,3/22/2017,15:14,left,false,5118,2,1_2_1_1,word_1_word_2,far,book,Clear_Before,preschool,hanna,2012-05-05,,English,,,,2,1,male
GtOkN,23,11,mal_plain,mal_sws,2,lorry,book,lorry,book,lorry,mal_plain_mal_sws,critical,3/22/2017,15:14,right,false,1922,1,1_2_1_1,word_1_word_2,far,lorry,Clear_Before,preschool,hanna,2012-05-05,,English,,,,2,1,male
GtOkN,23,11,mal_plain,mal_sws,3,lorry,book,lorry,book,lorry,mal_plain_mal_sws,critical,3/22/2017,15:14,left,false,1923,2,1_2_1_1,word_1_word_2,far,book,Clear_Before,preschool,hanna,2012-05-05,,English,,,,2,1,male
GtOkN,24,16,mal_plain,mal_sws,1,paintbrush,banana,banana,paintbrush,banana,mal_plain_mal_sws,critical,3/22/2017,15:14,right,false,2384,2,2_1_1_1,word_1_word_2,near,banana,Clear_Before,preschool,hanna,2012-05-05,,English,,,,2,1,male
GtOkN,24,16,mal_plain,mal_sws,2,paintbrush,banana,banana,paintbrush,banana,mal_plain_mal_sws,critical,3/22/2017,15:14,left,false,2152,1,2_1_1_1,word_1_word_2,near,paintbrush,Clear_Before,preschool,hanna,2012-05-05,,English,,,,2,1,male
GtOkN,24,16,mal_plain,mal_sws,3,paintbrush,banana,banana,paintbrush,banana,mal_plain_mal_sws,critical,3/22/2017,15:14,right,true,1974,1,2_1_1_1,word_1_word_2,near,banana,Clear_Before,preschool,hanna,2012-05-05,,English,,,,2,1,male
GtOkN,25,5,mal_plain,mal_sws,1,car,orange,car,orange,car,mal_plain_mal_sws,critical,3/22/2017,15:14,right,true,1869,2,1_2_1_1,word_1_word_2,far,car,Clear_Before,preschool,hanna,2012-05-05,,English,,,,2,1,male
GtOkN,25,5,mal_plain,mal_sws,2,car,orange,car,orange,car,mal_plain_mal_sws,critical,3/22/2017,15:14,right,false,2174,2,1_2_1_1,word_1_word_2,far,car,Clear_Before,preschool,hanna,2012-05-05,,English,,,,2,1,male
GtOkN,25,5,mal_plain,mal_sws,3,car,orange,car,orange,car,mal_plain_mal_sws,critical,3/22/2017,15:14,left,false,2926,1,1_2_1_1,word_1_word_2,far,orange,Clear_Before,preschool,hanna,2012-05-05,,English,,,,2,1,male
