subject_id,trial_number,trial_id,plain,sws,instruction_number,sound1_item,sound2_item,sound3_item,left_image,right_image,sound_gender,trial_type,date_stamp,time_stamp,side_chosen,accuracy,rt,play_counter,order,pic_position,distance,chosen_pic,test_lang,testing_loc,tester,date_of_birth,ethnicity,native_lang,other_langs,parental_occ,dev_info,birth_order,num_siblings,gender
HELjg,1,0,mal_plain,mal_sws,1,fireman,glasses,fireman,fireman,glasses,mal_plain_mal_sws,training,3/22/2017,16:46,left,true,13043,4,2_1_2_1,word_1_word_2,far,fireman,Clear_After,lab,barbora,2013-01-03,,,,,,,0,female
HELjg,1,0,mal_plain,mal_sws,2,fireman,glasses,fireman,fireman,glasses,mal_plain_mal_sws,training,3/22/2017,16:46,left,false,2377,2,2_1_2_1,word_1_word_2,far,fireman,Clear_After,lab,barbora,2013-01-03,,,,,,,0,female
HELjg,1,0,mal_plain,mal_sws,3,fireman,glasses,fireman,fireman,glasses,mal_plain_mal_sws,training,3/22/2017,16:46,right,false,2218,2,2_1_2_1,word_1_word_2,far,glasses,Clear_After,lab,barbora,2013-01-03,,,,,,,0,female
HELjg,2,14,mal_plain,mal_sws,1,cheese,shoes,shoes,cheese,shoes,mal_plain_mal_sws,critical,3/22/2017,16:46,right,false,4068,4,2_1_1_1,word_1_word_2,near,shoes,Clear_After,lab,barbora,2013-01-03,,,,,,,0,female
HELjg,2,14,mal_plain,mal_sws,2,cheese,shoes,shoes,cheese,shoes,mal_plain_mal_sws,critical,3/22/2017,16:46,left,false,2795,4,2_1_1_1,word_1_word_2,near,cheese,Clear_After,lab,barbora,2013-01-03,,,,,,,0,female
HELjg,2,14,mal_plain,mal_sws,3,cheese,shoes,shoes,cheese,shoes,mal_plain_mal_sws,critical,3/22/2017,16:46,right,true,2199,2,2_1_1_1,word_1_word_2,near,shoes,Clear_After,lab,barbora,2013-01-03,,,,,,,0,female
HELjg,3,1,mal_plain,mal_sws,1,baby,spoon,baby,baby,spoon,mal_plain_mal_sws,critical,3/22/2017,16:46,left,true,7102,1,2_1_2_1,word_2_word_1,far,baby,Clear_After,lab,barbora,2013-01-03,,,,,,,0,female
HELjg,3,1,mal_plain,mal_sws,2,baby,spoon,baby,baby,spoon,mal_plain_mal_sws,critical,3/22/2017,16:46,left,false,2179,2,2_1_2_1,word_2_word_1,far,baby,Clear_After,lab,barbora,2013-01-03,,,,,,,0,female
HELjg,3,1,mal_plain,mal_sws,3,baby,spoon,baby,baby,spoon,mal_plain_mal_sws,critical,3/22/2017,16:46,right,false,1981,2,2_1_2_1,word_2_word_1,far,spoon,Clear_After,lab,barbora,2013-01-03,,,,,,,0,female
HELjg,4,4,mal_plain,mal_sws,1,strawberry,coat,strawberry,strawberry,coat,mal_plain_mal_sws,critical,3/22/2017,16:46,left,true,3523,2,1_2_1_1,word_2_word_1,far,strawberry,Clear_After,lab,barbora,2013-01-03,,,,,,,0,female
HELjg,4,4,mal_plain,mal_sws,2,strawberry,coat,strawberry,strawberry,coat,mal_plain_mal_sws,critical,3/22/2017,16:46,left,false,1858,2,1_2_1_1,word_2_word_1,far,strawberry,Clear_After,lab,barbora,2013-01-03,,,,,,,0,female
HELjg,4,4,mal_plain,mal_sws,3,strawberry,coat,strawberry,strawberry,coat,mal_plain_mal_sws,critical,3/22/2017,16:46,right,false,2170,2,1_2_1_1,word_2_word_1,far,coat,Clear_After,lab,barbora,2013-01-03,,,,,,,0,female
HELjg,5,23,mal_plain,mal_sws,1,bath,teddy_bear,teddy_bear,bath,teddy_bear,mal_plain_mal_sws,critical,3/22/2017,16:46,left,true,2702,2,1_2_2_1,word_1_word_2,near,bath,Clear_After,lab,barbora,2013-01-03,,,,,,,0,female
HELjg,5,23,mal_plain,mal_sws,2,bath,teddy_bear,teddy_bear,bath,teddy_bear,mal_plain_mal_sws,critical,3/22/2017,16:46,left,false,2063,2,1_2_2_1,word_1_word_2,near,bath,Clear_After,lab,barbora,2013-01-03,,,,,,,0,female
HELjg,5,23,mal_plain,mal_sws,3,bath,teddy_bear,teddy_bear,bath,teddy_bear,mal_plain_mal_sws,critical,3/22/2017,16:46,right,true,1686,2,1_2_2_1,word_1_word_2,near,teddy_bear,Clear_After,lab,barbora,2013-01-03,,,,,,,0,female
HELjg,6,3,mal_plain,mal_sws,1,trousers,nose,trousers,nose,trousers,mal_plain_mal_sws,critical,3/22/2017,16:46,left,false,3518,2,1_2_1_1,word_2_word_1,far,nose,Clear_After,lab,barbora,2013-01-03,,,,,,,0,female
HELjg,6,3,mal_plain,mal_sws,2,trousers,nose,trousers,nose,trousers,mal_plain_mal_sws,critical,3/22/2017,16:46,right,false,2575,2,1_2_1_1,word_2_word_1,far,trousers,Clear_After,lab,barbora,2013-01-03,,,,,,,0,female
HELjg,6,3,mal_plain,mal_sws,3,trousers,nose,trousers,nose,trousers,mal_plain_mal_sws,critical,3/22/2017,16:46,left,false,2201,2,1_2_1_1,word_2_word_1,far,nose,Clear_After,lab,barbora,2013-01-03,,,,,,,0,female
HELjg,7,22,mal_plain,mal_sws,1,dog,bike,bike,dog,bike,mal_plain_mal_sws,critical,3/22/2017,16:46,left,true,2266,2,1_2_2_1,word_2_word_1,near,dog,Clear_After,lab,barbora,2013-01-03,,,,,,,0,female
HELjg,7,22,mal_plain,mal_sws,2,dog,bike,bike,dog,bike,mal_plain_mal_sws,critical,3/22/2017,16:46,left,false,1886,2,1_2_2_1,word_2_word_1,near,dog,Clear_After,lab,barbora,2013-01-03,,,,,,,0,female
HELjg,7,22,mal_plain,mal_sws,3,dog,bike,bike,dog,bike,mal_plain_mal_sws,critical,3/22/2017,16:46,right,true,498,2,1_2_2_1,word_2_word_1,near,bike,Clear_After,lab,barbora,2013-01-03,,,,,,,0,female
HELjg,8,10,mal_plain,mal_sws,1,tshirt,pig,tshirt,tshirt,pig,mal_plain_mal_sws,critical,3/22/2017,16:46,left,true,342,2,2_1_2_1,word_2_word_1,far,tshirt,Clear_After,lab,barbora,2013-01-03,,,,,,,0,female
HELjg,8,10,mal_plain,mal_sws,2,tshirt,pig,tshirt,tshirt,pig,mal_plain_mal_sws,critical,3/22/2017,16:46,left,false,3212,2,2_1_2_1,word_2_word_1,far,tshirt,Clear_After,lab,barbora,2013-01-03,,,,,,,0,female
HELjg,8,10,mal_plain,mal_sws,3,tshirt,pig,tshirt,tshirt,pig,mal_plain_mal_sws,critical,3/22/2017,16:46,right,false,2055,2,2_1_2_1,word_2_word_1,far,pig,Clear_After,lab,barbora,2013-01-03,,,,,,,0,female
HELjg,9,17,mal_plain,mal_sws,1,cake,ambulance,cake,cake,ambulance,mal_plain_mal_sws,critical,3/22/2017,16:46,left,true,2209,2,1_2_1_1,word_1_word_2,far,cake,Clear_After,lab,barbora,2013-01-03,,,,,,,0,female
HELjg,9,17,mal_plain,mal_sws,2,cake,ambulance,cake,cake,ambulance,mal_plain_mal_sws,critical,3/22/2017,16:46,left,false,1724,1,1_2_1_1,word_1_word_2,far,cake,Clear_After,lab,barbora,2013-01-03,,,,,,,0,female
HELjg,9,17,mal_plain,mal_sws,3,cake,ambulance,cake,cake,ambulance,mal_plain_mal_sws,critical,3/22/2017,16:46,right,false,2942,4,1_2_1_1,word_1_word_2,far,ambulance,Clear_After,lab,barbora,2013-01-03,,,,,,,0,female
HELjg,10,21,mal_plain,mal_sws,1,sheep,frog,sheep,sheep,frog,mal_plain_mal_sws,critical,3/22/2017,16:46,left,true,1924,2,2_1_2_1,word_2_word_1,far,sheep,Clear_After,lab,barbora,2013-01-03,,,,,,,0,female
HELjg,10,21,mal_plain,mal_sws,2,sheep,frog,sheep,sheep,frog,mal_plain_mal_sws,critical,3/22/2017,16:46,left,false,2190,2,2_1_2_1,word_2_word_1,far,sheep,Clear_After,lab,barbora,2013-01-03,,,,,,,0,female
HELjg,10,21,mal_plain,mal_sws,3,sheep,frog,sheep,sheep,frog,mal_plain_mal_sws,critical,3/22/2017,16:46,right,false,2788,2,2_1_2_1,word_2_word_1,far,frog,Clear_After,lab,barbora,2013-01-03,,,,,,,0,female
HELjg,11,5,mal_plain,mal_sws,1,car,orange,orange,car,orange,mal_plain_mal_sws,critical,3/22/2017,16:46,left,true,1922,2,2_1_1_1,word_2_word_1,near,car,Clear_After,lab,barbora,2013-01-03,,,,,,,0,female
HELjg,11,5,mal_plain,mal_sws,2,car,orange,orange,car,orange,mal_plain_mal_sws,critical,3/22/2017,16:46,left,false,2443,2,2_1_1_1,word_2_word_1,near,car,Clear_After,lab,barbora,2013-01-03,,,,,,,0,female
HELjg,11,5,mal_plain,mal_sws,3,car,orange,orange,car,orange,mal_plain_mal_sws,critical,3/22/2017,16:46,right,true,1638,2,2_1_1_1,word_2_word_1,near,orange,Clear_After,lab,barbora,2013-01-03,,,,,,,0,female
HELjg,12,16,mal_plain,mal_sws,1,banana,paintbrush,banana,banana,paintbrush,mal_plain_mal_sws,critical,3/22/2017,16:46,left,true,2495,2,1_2_1_1,word_2_word_1,far,banana,Clear_After,lab,barbora,2013-01-03,,,,,,,0,female
HELjg,12,16,mal_plain,mal_sws,2,banana,paintbrush,banana,banana,paintbrush,mal_plain_mal_sws,critical,3/22/2017,16:46,left,false,2001,2,1_2_1_1,word_2_word_1,far,banana,Clear_After,lab,barbora,2013-01-03,,,,,,,0,female
HELjg,12,16,mal_plain,mal_sws,3,banana,paintbrush,banana,banana,paintbrush,mal_plain_mal_sws,critical,3/22/2017,16:46,right,false,1385,2,1_2_1_1,word_2_word_1,far,paintbrush,Clear_After,lab,barbora,2013-01-03,,,,,,,0,female
HELjg,13,19,mal_plain,mal_sws,1,building_blocks,santa,santa,building_blocks,santa,mal_plain_mal_sws,critical,3/22/2017,16:46,left,true,2662,2,1_2_2_1,word_2_word_1,near,building_blocks,Clear_After,lab,barbora,2013-01-03,,,,,,,0,female
HELjg,13,19,mal_plain,mal_sws,2,building_blocks,santa,santa,building_blocks,santa,mal_plain_mal_sws,critical,3/22/2017,16:46,left,false,2289,2,1_2_2_1,word_2_word_1,near,building_blocks,Clear_After,lab,barbora,2013-01-03,,,,,,,0,female
HELjg,13,19,mal_plain,mal_sws,3,building_blocks,santa,santa,building_blocks,santa,mal_plain_mal_sws,critical,3/22/2017,16:46,right,true,2254,2,1_2_2_1,word_2_word_1,near,santa,Clear_After,lab,barbora,2013-01-03,,,,,,,0,female
HELjg,14,20,mal_plain,mal_sws,1,rabbit,jumper,rabbit,rabbit,jumper,mal_plain_mal_sws,critical,3/22/2017,16:46,left,true,2947,2,1_2_1_1,word_2_word_1,far,rabbit,Clear_After,lab,barbora,2013-01-03,,,,,,,0,female
HELjg,14,20,mal_plain,mal_sws,2,rabbit,jumper,rabbit,rabbit,jumper,mal_plain_mal_sws,critical,3/22/2017,16:46,left,false,2685,2,1_2_1_1,word_2_word_1,far,rabbit,Clear_After,lab,barbora,2013-01-03,,,,,,,0,female
HELjg,14,20,mal_plain,mal_sws,3,rabbit,jumper,rabbit,rabbit,jumper,mal_plain_mal_sws,critical,3/22/2017,16:46,right,false,2240,2,1_2_1_1,word_2_word_1,far,jumper,Clear_After,lab,barbora,2013-01-03,,,,,,,0,female
HELjg,15,11,mal_plain,mal_sws,1,book,lorry,lorry,lorry,book,mal_plain_mal_sws,critical,3/22/2017,16:46,left,false,2557,2,1_2_2_1,word_2_word_1,near,lorry,Clear_After,lab,barbora,2013-01-03,,,,,,,0,female
HELjg,15,11,mal_plain,mal_sws,2,book,lorry,lorry,lorry,book,mal_plain_mal_sws,critical,3/22/2017,16:46,right,false,3083,2,1_2_2_1,word_2_word_1,near,book,Clear_After,lab,barbora,2013-01-03,,,,,,,0,female
HELjg,15,11,mal_plain,mal_sws,3,book,lorry,lorry,lorry,book,mal_plain_mal_sws,critical,3/22/2017,16:46,left,true,1740,2,1_2_2_1,word_2_word_1,near,lorry,Clear_After,lab,barbora,2013-01-03,,,,,,,0,female
HELjg,16,18,mal_plain,mal_sws,1,raspberry,ball,ball,ball,raspberry,mal_plain_mal_sws,critical,3/22/2017,16:46,left,false,2676,2,2_1_1_1,word_1_word_2,near,ball,Clear_After,lab,barbora,2013-01-03,,,,,,,0,female
HELjg,16,18,mal_plain,mal_sws,2,raspberry,ball,ball,ball,raspberry,mal_plain_mal_sws,critical,3/22/2017,16:46,right,false,3114,2,2_1_1_1,word_1_word_2,near,raspberry,Clear_After,lab,barbora,2013-01-03,,,,,,,0,female
HELjg,16,18,mal_plain,mal_sws,3,raspberry,ball,ball,ball,raspberry,mal_plain_mal_sws,critical,3/22/2017,16:46,left,true,2452,2,2_1_1_1,word_1_word_2,near,ball,Clear_After,lab,barbora,2013-01-03,,,,,,,0,female
HELjg,17,7,mal_plain,mal_sws,1,lolly,horse,lolly,horse,lolly,mal_plain_mal_sws,critical,3/22/2017,16:46,left,false,2491,2,1_2_1_1,word_2_word_1,far,horse,Clear_After,lab,barbora,2013-01-03,,,,,,,0,female
HELjg,17,7,mal_plain,mal_sws,2,lolly,horse,lolly,horse,lolly,mal_plain_mal_sws,critical,3/22/2017,16:46,right,false,2286,2,1_2_1_1,word_2_word_1,far,lolly,Clear_After,lab,barbora,2013-01-03,,,,,,,0,female
HELjg,17,7,mal_plain,mal_sws,3,lolly,horse,lolly,horse,lolly,mal_plain_mal_sws,critical,3/22/2017,16:46,left,false,2742,2,1_2_1_1,word_2_word_1,far,horse,Clear_After,lab,barbora,2013-01-03,,,,,,,0,female
HELjg,18,12,mal_plain,mal_sws,1,yoghurt,foot,foot,foot,yoghurt,mal_plain_mal_sws,critical,3/22/2017,16:46,left,false,2748,2,1_2_2_1,word_1_word_2,near,foot,Clear_After,lab,barbora,2013-01-03,,,,,,,0,female
HELjg,18,12,mal_plain,mal_sws,2,yoghurt,foot,foot,foot,yoghurt,mal_plain_mal_sws,critical,3/22/2017,16:46,right,false,1987,1,1_2_2_1,word_1_word_2,near,yoghurt,Clear_After,lab,barbora,2013-01-03,,,,,,,0,female
HELjg,18,12,mal_plain,mal_sws,3,yoghurt,foot,foot,foot,yoghurt,mal_plain_mal_sws,critical,3/22/2017,16:46,left,true,3087,2,1_2_2_1,word_1_word_2,near,foot,Clear_After,lab,barbora,2013-01-03,,,,,,,0,female
HELjg,19,15,mal_plain,mal_sws,1,pencil,slide,slide,slide,pencil,mal_plain_mal_sws,critical,3/22/2017,16:46,left,false,2949,2,1_2_2_1,word_1_word_2,near,slide,Clear_After,lab,barbora,2013-01-03,,,,,,,0,female
HELjg,19,15,mal_plain,mal_sws,2,pencil,slide,slide,slide,pencil,mal_plain_mal_sws,critical,3/22/2017,16:46,right,false,1995,2,1_2_2_1,word_1_word_2,near,pencil,Clear_After,lab,barbora,2013-01-03,,,,,,,0,female
HELjg,19,15,mal_plain,mal_sws,3,pencil,slide,slide,slide,pencil,mal_plain_mal_sws,critical,3/22/2017,16:46,left,true,6150,2,1_2_2_1,word_1_word_2,near,slide,Clear_After,lab,barbora,2013-01-03,,,,,,,0,female
HELjg,20,9,mal_plain,mal_sws,1,pizza,window,pizza,window,pizza,mal_plain_mal_sws,critical,3/22/2017,16:46,left,false,2574,2,2_1_2_1,word_2_word_1,far,window,Clear_After,lab,barbora,2013-01-03,,,,,,,0,female
HELjg,20,9,mal_plain,mal_sws,2,pizza,window,pizza,window,pizza,mal_plain_mal_sws,critical,3/22/2017,16:46,right,false,2980,2,2_1_2_1,word_2_word_1,far,pizza,Clear_After,lab,barbora,2013-01-03,,,,,,,0,female
HELjg,20,9,mal_plain,mal_sws,3,pizza,window,pizza,window,pizza,mal_plain_mal_sws,critical,3/22/2017,16:46,left,false,1832,2,2_1_2_1,word_2_word_1,far,window,Clear_After,lab,barbora,2013-01-03,,,,,,,0,female
HELjg,21,6,mal_plain,mal_sws,1,peas,bird,bird,bird,peas,mal_plain_mal_sws,critical,3/22/2017,16:46,left,false,5039,2,2_1_1_1,word_1_word_2,near,bird,Clear_After,lab,barbora,2013-01-03,,,,,,,0,female
HELjg,21,6,mal_plain,mal_sws,2,peas,bird,bird,bird,peas,mal_plain_mal_sws,critical,3/22/2017,16:46,right,false,2224,2,2_1_1_1,word_1_word_2,near,peas,Clear_After,lab,barbora,2013-01-03,,,,,,,0,female
HELjg,21,6,mal_plain,mal_sws,3,peas,bird,bird,bird,peas,mal_plain_mal_sws,critical,3/22/2017,16:46,left,true,1374,2,2_1_1_1,word_1_word_2,near,bird,Clear_After,lab,barbora,2013-01-03,,,,,,,0,female
HELjg,22,2,mal_plain,mal_sws,1,bed,chicken,chicken,bed,chicken,mal_plain_mal_sws,critical,3/22/2017,16:46,right,false,3341,2,2_1_1_1,word_1_word_2,near,chicken,Clear_After,lab,barbora,2013-01-03,,,,,,,0,female
HELjg,22,2,mal_plain,mal_sws,2,bed,chicken,chicken,bed,chicken,mal_plain_mal_sws,critical,3/22/2017,16:46,left,false,2608,2,2_1_1_1,word_1_word_2,near,bed,Clear_After,lab,barbora,2013-01-03,,,,,,,0,female
HELjg,22,2,mal_plain,mal_sws,3,bed,chicken,chicken,bed,chicken,mal_plain_mal_sws,critical,3/22/2017,16:46,right,true,2152,2,2_1_1_1,word_1_word_2,near,chicken,Clear_After,lab,barbora,2013-01-03,,,,,,,0,female
HELjg,23,13,mal_plain,mal_sws,1,toothbrush,airplane,toothbrush,toothbrush,airplane,mal_plain_mal_sws,critical,3/22/2017,16:46,left,true,4118,2,2_1_2_1,word_1_word_2,far,toothbrush,Clear_After,lab,barbora,2013-01-03,,,,,,,0,female
HELjg,23,13,mal_plain,mal_sws,2,toothbrush,airplane,toothbrush,toothbrush,airplane,mal_plain_mal_sws,critical,3/22/2017,16:46,left,false,2091,2,2_1_2_1,word_1_word_2,far,toothbrush,Clear_After,lab,barbora,2013-01-03,,,,,,,0,female
HELjg,23,13,mal_plain,mal_sws,3,toothbrush,airplane,toothbrush,toothbrush,airplane,mal_plain_mal_sws,critical,3/22/2017,16:46,right,false,2440,4,2_1_2_1,word_1_word_2,far,airplane,Clear_After,lab,barbora,2013-01-03,,,,,,,0,female
HELjg,24,8,mal_plain,mal_sws,1,fire_engine,wellyboots,wellyboots,wellyboots,fire_engine,mal_plain_mal_sws,critical,3/22/2017,16:46,left,false,4268,2,2_1_1_1,word_1_word_2,near,wellyboots,Clear_After,lab,barbora,2013-01-03,,,,,,,0,female
HELjg,24,8,mal_plain,mal_sws,2,fire_engine,wellyboots,wellyboots,wellyboots,fire_engine,mal_plain_mal_sws,critical,3/22/2017,16:46,right,false,2939,2,2_1_1_1,word_1_word_2,near,fire_engine,Clear_After,lab,barbora,2013-01-03,,,,,,,0,female
HELjg,24,8,mal_plain,mal_sws,3,fire_engine,wellyboots,wellyboots,wellyboots,fire_engine,mal_plain_mal_sws,critical,3/22/2017,16:46,left,true,1068,2,2_1_1_1,word_1_word_2,near,wellyboots,Clear_After,lab,barbora,2013-01-03,,,,,,,0,female
HELjg,25,24,mal_plain,mal_sws,1,sink,fish,sink,sink,fish,mal_plain_mal_sws,critical,3/22/2017,16:46,left,true,3814,2,1_2_1_1,word_1_word_2,far,sink,Clear_After,lab,barbora,2013-01-03,,,,,,,0,female
HELjg,25,24,mal_plain,mal_sws,2,sink,fish,sink,sink,fish,mal_plain_mal_sws,critical,3/22/2017,16:46,left,false,2587,2,1_2_1_1,word_1_word_2,far,sink,Clear_After,lab,barbora,2013-01-03,,,,,,,0,female
HELjg,25,24,mal_plain,mal_sws,3,sink,fish,sink,sink,fish,mal_plain_mal_sws,critical,3/22/2017,16:46,right,false,1954,2,1_2_1_1,word_1_word_2,far,fish,Clear_After,lab,barbora,2013-01-03,,,,,,,0,female
