subject_id,trial_number,trial_id,plain,sws,instruction_number,sound1_item,sound2_item,sound3_item,left_image,right_image,sound_gender,trial_type,date_stamp,time_stamp,side_chosen,accuracy,rt,play_counter,order,pic_position,distance,chosen_pic,test_lang,testing_loc,tester,date_of_birth,ethnicity,native_lang,other_langs,parental_occ,dev_info,birth_order,num_siblings,gender
IA7TJ,1,0,mal_plain,mal_sws,1,fireman,glasses,fireman,fireman,glasses,mal_plain_mal_sws,training,3/16/2017,10:04,left,true,8119,4,1_2_1_1,word_1_word_2,far,fireman,Clear_After,preschool,hanna,2013-09-19,,English,,,,,,female
IA7TJ,1,0,mal_plain,mal_sws,2,fireman,glasses,fireman,fireman,glasses,mal_plain_mal_sws,training,3/16/2017,10:04,left,false,3874,2,1_2_1_1,word_1_word_2,far,fireman,Clear_After,preschool,hanna,2013-09-19,,English,,,,,,female
IA7TJ,1,0,mal_plain,mal_sws,3,fireman,glasses,fireman,fireman,glasses,mal_plain_mal_sws,training,3/16/2017,10:04,right,false,2078,2,1_2_1_1,word_1_word_2,far,glasses,Clear_After,preschool,hanna,2013-09-19,,English,,,,,,female
IA7TJ,2,2,mal_plain,mal_sws,1,chicken,bed,bed,chicken,bed,mal_plain_mal_sws,critical,3/16/2017,10:04,left,true,10242,7,2_1_1_1,word_2_word_1,near,chicken,Clear_After,preschool,hanna,2013-09-19,,English,,,,,,female
IA7TJ,2,2,mal_plain,mal_sws,2,chicken,bed,bed,chicken,bed,mal_plain_mal_sws,critical,3/16/2017,10:04,left,false,2886,2,2_1_1_1,word_2_word_1,near,chicken,Clear_After,preschool,hanna,2013-09-19,,English,,,,,,female
IA7TJ,2,2,mal_plain,mal_sws,3,chicken,bed,bed,chicken,bed,mal_plain_mal_sws,critical,3/16/2017,10:04,right,true,2608,2,2_1_1_1,word_2_word_1,near,bed,Clear_After,preschool,hanna,2013-09-19,,English,,,,,,female
IA7TJ,3,24,mal_plain,mal_sws,1,sink,fish,fish,fish,sink,mal_plain_mal_sws,critical,3/16/2017,10:04,left,false,5678,2,2_1_1_1,word_2_word_1,near,fish,Clear_After,preschool,hanna,2013-09-19,,English,,,,,,female
IA7TJ,3,24,mal_plain,mal_sws,2,sink,fish,fish,fish,sink,mal_plain_mal_sws,critical,3/16/2017,10:04,right,false,3178,2,2_1_1_1,word_2_word_1,near,sink,Clear_After,preschool,hanna,2013-09-19,,English,,,,,,female
IA7TJ,3,24,mal_plain,mal_sws,3,sink,fish,fish,fish,sink,mal_plain_mal_sws,critical,3/16/2017,10:04,left,true,2320,2,2_1_1_1,word_2_word_1,near,fish,Clear_After,preschool,hanna,2013-09-19,,English,,,,,,female
IA7TJ,4,3,mal_plain,mal_sws,1,trousers,nose,trousers,nose,trousers,mal_plain_mal_sws,critical,3/16/2017,10:04,right,true,6569,4,2_1_2_1,word_2_word_1,far,trousers,Clear_After,preschool,hanna,2013-09-19,,English,,,,,,female
IA7TJ,4,3,mal_plain,mal_sws,2,trousers,nose,trousers,nose,trousers,mal_plain_mal_sws,critical,3/16/2017,10:04,right,false,3433,2,2_1_2_1,word_2_word_1,far,trousers,Clear_After,preschool,hanna,2013-09-19,,English,,,,,,female
IA7TJ,4,3,mal_plain,mal_sws,3,trousers,nose,trousers,nose,trousers,mal_plain_mal_sws,critical,3/16/2017,10:04,left,false,2479,2,2_1_2_1,word_2_word_1,far,nose,Clear_After,preschool,hanna,2013-09-19,,English,,,,,,female
IA7TJ,5,9,mal_plain,mal_sws,1,pizza,window,pizza,pizza,window,mal_plain_mal_sws,critical,3/16/2017,10:04,left,true,3161,2,2_1_2_1,word_1_word_2,far,pizza,Clear_After,preschool,hanna,2013-09-19,,English,,,,,,female
IA7TJ,5,9,mal_plain,mal_sws,2,pizza,window,pizza,pizza,window,mal_plain_mal_sws,critical,3/16/2017,10:04,left,false,3080,2,2_1_2_1,word_1_word_2,far,pizza,Clear_After,preschool,hanna,2013-09-19,,English,,,,,,female
IA7TJ,5,9,mal_plain,mal_sws,3,pizza,window,pizza,pizza,window,mal_plain_mal_sws,critical,3/16/2017,10:04,right,false,2429,1,2_1_2_1,word_1_word_2,far,window,Clear_After,preschool,hanna,2013-09-19,,English,,,,,,female
IA7TJ,6,14,mal_plain,mal_sws,1,cheese,shoes,shoes,shoes,cheese,mal_plain_mal_sws,critical,3/16/2017,10:04,right,true,7669,12,1_2_2_1,word_2_word_1,near,cheese,Clear_After,preschool,hanna,2013-09-19,,English,,,,,,female
IA7TJ,6,14,mal_plain,mal_sws,2,cheese,shoes,shoes,shoes,cheese,mal_plain_mal_sws,critical,3/16/2017,10:04,right,false,2566,2,1_2_2_1,word_2_word_1,near,cheese,Clear_After,preschool,hanna,2013-09-19,,English,,,,,,female
IA7TJ,6,14,mal_plain,mal_sws,3,cheese,shoes,shoes,shoes,cheese,mal_plain_mal_sws,critical,3/16/2017,10:04,left,true,2207,2,1_2_2_1,word_2_word_1,near,shoes,Clear_After,preschool,hanna,2013-09-19,,English,,,,,,female
IA7TJ,7,4,mal_plain,mal_sws,1,coat,strawberry,strawberry,strawberry,coat,mal_plain_mal_sws,critical,3/16/2017,10:04,right,true,1614,4,1_2_2_1,word_2_word_1,near,coat,Clear_After,preschool,hanna,2013-09-19,,English,,,,,,female
IA7TJ,7,4,mal_plain,mal_sws,2,coat,strawberry,strawberry,strawberry,coat,mal_plain_mal_sws,critical,3/16/2017,10:04,right,false,2675,2,1_2_2_1,word_2_word_1,near,coat,Clear_After,preschool,hanna,2013-09-19,,English,,,,,,female
IA7TJ,7,4,mal_plain,mal_sws,3,coat,strawberry,strawberry,strawberry,coat,mal_plain_mal_sws,critical,3/16/2017,10:04,left,true,1835,1,1_2_2_1,word_2_word_1,near,strawberry,Clear_After,preschool,hanna,2013-09-19,,English,,,,,,female
IA7TJ,8,16,mal_plain,mal_sws,1,banana,paintbrush,banana,banana,paintbrush,mal_plain_mal_sws,critical,3/16/2017,10:04,left,true,3983,4,1_2_1_1,word_2_word_1,far,banana,Clear_After,preschool,hanna,2013-09-19,,English,,,,,,female
IA7TJ,8,16,mal_plain,mal_sws,2,banana,paintbrush,banana,banana,paintbrush,mal_plain_mal_sws,critical,3/16/2017,10:04,left,false,3997,2,1_2_1_1,word_2_word_1,far,banana,Clear_After,preschool,hanna,2013-09-19,,English,,,,,,female
IA7TJ,8,16,mal_plain,mal_sws,3,banana,paintbrush,banana,banana,paintbrush,mal_plain_mal_sws,critical,3/16/2017,10:04,right,false,2557,2,1_2_1_1,word_2_word_1,far,paintbrush,Clear_After,preschool,hanna,2013-09-19,,English,,,,,,female
IA7TJ,9,8,mal_plain,mal_sws,1,fire_engine,wellyboots,fire_engine,fire_engine,wellyboots,mal_plain_mal_sws,critical,3/16/2017,10:04,right,false,8987,2,1_2_1_1,word_2_word_1,far,wellyboots,Clear_After,preschool,hanna,2013-09-19,,English,,,,,,female
IA7TJ,9,8,mal_plain,mal_sws,2,fire_engine,wellyboots,fire_engine,fire_engine,wellyboots,mal_plain_mal_sws,critical,3/16/2017,10:04,left,false,3668,2,1_2_1_1,word_2_word_1,far,fire_engine,Clear_After,preschool,hanna,2013-09-19,,English,,,,,,female
IA7TJ,9,8,mal_plain,mal_sws,3,fire_engine,wellyboots,fire_engine,fire_engine,wellyboots,mal_plain_mal_sws,critical,3/16/2017,10:04,right,false,2638,2,1_2_1_1,word_2_word_1,far,wellyboots,Clear_After,preschool,hanna,2013-09-19,,English,,,,,,female
IA7TJ,10,22,mal_plain,mal_sws,1,bike,dog,dog,dog,bike,mal_plain_mal_sws,critical,3/16/2017,10:04,left,false,5616,2,2_1_1_1,word_2_word_1,near,dog,Clear_After,preschool,hanna,2013-09-19,,English,,,,,,female
IA7TJ,10,22,mal_plain,mal_sws,2,bike,dog,dog,dog,bike,mal_plain_mal_sws,critical,3/16/2017,10:04,right,false,3679,2,2_1_1_1,word_2_word_1,near,bike,Clear_After,preschool,hanna,2013-09-19,,English,,,,,,female
IA7TJ,10,22,mal_plain,mal_sws,3,bike,dog,dog,dog,bike,mal_plain_mal_sws,critical,3/16/2017,10:04,left,true,1797,2,2_1_1_1,word_2_word_1,near,dog,Clear_After,preschool,hanna,2013-09-19,,English,,,,,,female
IA7TJ,11,20,mal_plain,mal_sws,1,rabbit,jumper,rabbit,jumper,rabbit,mal_plain_mal_sws,critical,3/16/2017,10:04,right,true,2005,2,1_2_1_1,word_1_word_2,far,rabbit,Clear_After,preschool,hanna,2013-09-19,,English,,,,,,female
IA7TJ,11,20,mal_plain,mal_sws,2,rabbit,jumper,rabbit,jumper,rabbit,mal_plain_mal_sws,critical,3/16/2017,10:04,right,false,1949,1,1_2_1_1,word_1_word_2,far,rabbit,Clear_After,preschool,hanna,2013-09-19,,English,,,,,,female
IA7TJ,11,20,mal_plain,mal_sws,3,rabbit,jumper,rabbit,jumper,rabbit,mal_plain_mal_sws,critical,3/16/2017,10:04,left,false,1799,1,1_2_1_1,word_1_word_2,far,jumper,Clear_After,preschool,hanna,2013-09-19,,English,,,,,,female
IA7TJ,12,17,mal_plain,mal_sws,1,ambulance,cake,ambulance,cake,ambulance,mal_plain_mal_sws,critical,3/16/2017,10:04,right,true,1474,4,1_2_1_1,word_1_word_2,far,ambulance,Clear_After,preschool,hanna,2013-09-19,,English,,,,,,female
IA7TJ,12,17,mal_plain,mal_sws,2,ambulance,cake,ambulance,cake,ambulance,mal_plain_mal_sws,critical,3/16/2017,10:04,right,false,2444,2,1_2_1_1,word_1_word_2,far,ambulance,Clear_After,preschool,hanna,2013-09-19,,English,,,,,,female
IA7TJ,12,17,mal_plain,mal_sws,3,ambulance,cake,ambulance,cake,ambulance,mal_plain_mal_sws,critical,3/16/2017,10:04,left,false,1885,1,1_2_1_1,word_1_word_2,far,cake,Clear_After,preschool,hanna,2013-09-19,,English,,,,,,female
IA7TJ,13,21,mal_plain,mal_sws,1,sheep,frog,frog,frog,sheep,mal_plain_mal_sws,critical,3/16/2017,10:04,right,true,3421,2,2_1_1_1,word_1_word_2,near,sheep,Clear_After,preschool,hanna,2013-09-19,,English,,,,,,female
IA7TJ,13,21,mal_plain,mal_sws,2,sheep,frog,frog,frog,sheep,mal_plain_mal_sws,critical,3/16/2017,10:04,right,false,2370,1,2_1_1_1,word_1_word_2,near,sheep,Clear_After,preschool,hanna,2013-09-19,,English,,,,,,female
IA7TJ,13,21,mal_plain,mal_sws,3,sheep,frog,frog,frog,sheep,mal_plain_mal_sws,critical,3/16/2017,10:04,left,true,1895,1,2_1_1_1,word_1_word_2,near,frog,Clear_After,preschool,hanna,2013-09-19,,English,,,,,,female
IA7TJ,14,5,mal_plain,mal_sws,1,orange,car,car,orange,car,mal_plain_mal_sws,critical,3/16/2017,10:04,right,false,1891,4,2_1_1_1,word_1_word_2,near,car,Clear_After,preschool,hanna,2013-09-19,,English,,,,,,female
IA7TJ,14,5,mal_plain,mal_sws,2,orange,car,car,orange,car,mal_plain_mal_sws,critical,3/16/2017,10:04,left,false,3394,2,2_1_1_1,word_1_word_2,near,orange,Clear_After,preschool,hanna,2013-09-19,,English,,,,,,female
IA7TJ,14,5,mal_plain,mal_sws,3,orange,car,car,orange,car,mal_plain_mal_sws,critical,3/16/2017,10:04,right,true,2490,4,2_1_1_1,word_1_word_2,near,car,Clear_After,preschool,hanna,2013-09-19,,English,,,,,,female
IA7TJ,15,19,mal_plain,mal_sws,1,building_blocks,santa,santa,santa,building_blocks,mal_plain_mal_sws,critical,3/16/2017,10:04,right,true,5794,4,1_2_2_1,word_1_word_2,near,building_blocks,Clear_After,preschool,hanna,2013-09-19,,English,,,,,,female
IA7TJ,15,19,mal_plain,mal_sws,2,building_blocks,santa,santa,santa,building_blocks,mal_plain_mal_sws,critical,3/16/2017,10:04,right,false,2373,2,1_2_2_1,word_1_word_2,near,building_blocks,Clear_After,preschool,hanna,2013-09-19,,English,,,,,,female
IA7TJ,15,19,mal_plain,mal_sws,3,building_blocks,santa,santa,santa,building_blocks,mal_plain_mal_sws,critical,3/16/2017,10:04,left,true,2099,1,1_2_2_1,word_1_word_2,near,santa,Clear_After,preschool,hanna,2013-09-19,,English,,,,,,female
IA7TJ,16,23,mal_plain,mal_sws,1,bath,teddy_bear,teddy_bear,bath,teddy_bear,mal_plain_mal_sws,critical,3/16/2017,10:04,right,false,5503,4,1_2_2_1,word_1_word_2,near,teddy_bear,Clear_After,preschool,hanna,2013-09-19,,English,,,,,,female
IA7TJ,16,23,mal_plain,mal_sws,2,bath,teddy_bear,teddy_bear,bath,teddy_bear,mal_plain_mal_sws,critical,3/16/2017,10:04,left,false,2213,2,1_2_2_1,word_1_word_2,near,bath,Clear_After,preschool,hanna,2013-09-19,,English,,,,,,female
IA7TJ,16,23,mal_plain,mal_sws,3,bath,teddy_bear,teddy_bear,bath,teddy_bear,mal_plain_mal_sws,critical,3/16/2017,10:04,right,true,2726,1,1_2_2_1,word_1_word_2,near,teddy_bear,Clear_After,preschool,hanna,2013-09-19,,English,,,,,,female
IA7TJ,17,10,mal_plain,mal_sws,1,tshirt,pig,pig,tshirt,pig,mal_plain_mal_sws,critical,3/16/2017,10:04,right,false,5714,2,2_1_1_1,word_2_word_1,near,pig,Clear_After,preschool,hanna,2013-09-19,,English,,,,,,female
IA7TJ,17,10,mal_plain,mal_sws,2,tshirt,pig,pig,tshirt,pig,mal_plain_mal_sws,critical,3/16/2017,10:04,left,false,2889,1,2_1_1_1,word_2_word_1,near,tshirt,Clear_After,preschool,hanna,2013-09-19,,English,,,,,,female
IA7TJ,17,10,mal_plain,mal_sws,3,tshirt,pig,pig,tshirt,pig,mal_plain_mal_sws,critical,3/16/2017,10:04,right,true,1986,4,2_1_1_1,word_2_word_1,near,pig,Clear_After,preschool,hanna,2013-09-19,,English,,,,,,female
IA7TJ,18,11,mal_plain,mal_sws,1,book,lorry,book,book,lorry,mal_plain_mal_sws,critical,3/16/2017,10:04,right,false,4563,2,2_1_2_1,word_1_word_2,far,lorry,Clear_After,preschool,hanna,2013-09-19,,English,,,,,,female
IA7TJ,18,11,mal_plain,mal_sws,2,book,lorry,book,book,lorry,mal_plain_mal_sws,critical,3/16/2017,10:04,left,false,3416,1,2_1_2_1,word_1_word_2,far,book,Clear_After,preschool,hanna,2013-09-19,,English,,,,,,female
IA7TJ,18,11,mal_plain,mal_sws,3,book,lorry,book,book,lorry,mal_plain_mal_sws,critical,3/16/2017,10:04,right,false,2623,2,2_1_2_1,word_1_word_2,far,lorry,Clear_After,preschool,hanna,2013-09-19,,English,,,,,,female
IA7TJ,19,15,mal_plain,mal_sws,1,pencil,slide,slide,pencil,slide,mal_plain_mal_sws,critical,3/16/2017,10:04,right,false,2069,4,1_2_2_1,word_2_word_1,near,slide,Clear_After,preschool,hanna,2013-09-19,,English,,,,,,female
IA7TJ,19,15,mal_plain,mal_sws,2,pencil,slide,slide,pencil,slide,mal_plain_mal_sws,critical,3/16/2017,10:04,left,false,2543,2,1_2_2_1,word_2_word_1,near,pencil,Clear_After,preschool,hanna,2013-09-19,,English,,,,,,female
IA7TJ,19,15,mal_plain,mal_sws,3,pencil,slide,slide,pencil,slide,mal_plain_mal_sws,critical,3/16/2017,10:04,right,true,2750,2,1_2_2_1,word_2_word_1,near,slide,Clear_After,preschool,hanna,2013-09-19,,English,,,,,,female
IA7TJ,20,12,mal_plain,mal_sws,1,yoghurt,foot,foot,foot,yoghurt,mal_plain_mal_sws,critical,3/16/2017,10:04,left,false,1756,2,1_2_2_1,word_1_word_2,near,foot,Clear_After,preschool,hanna,2013-09-19,,English,,,,,,female
IA7TJ,20,12,mal_plain,mal_sws,2,yoghurt,foot,foot,foot,yoghurt,mal_plain_mal_sws,critical,3/16/2017,10:04,right,false,2598,2,1_2_2_1,word_1_word_2,near,yoghurt,Clear_After,preschool,hanna,2013-09-19,,English,,,,,,female
IA7TJ,20,12,mal_plain,mal_sws,3,yoghurt,foot,foot,foot,yoghurt,mal_plain_mal_sws,critical,3/16/2017,10:04,left,true,2229,2,1_2_2_1,word_1_word_2,near,foot,Clear_After,preschool,hanna,2013-09-19,,English,,,,,,female
IA7TJ,21,13,mal_plain,mal_sws,1,toothbrush,airplane,toothbrush,airplane,toothbrush,mal_plain_mal_sws,critical,3/16/2017,10:04,right,true,5435,4,2_1_2_1,word_2_word_1,far,toothbrush,Clear_After,preschool,hanna,2013-09-19,,English,,,,,,female
IA7TJ,21,13,mal_plain,mal_sws,2,toothbrush,airplane,toothbrush,airplane,toothbrush,mal_plain_mal_sws,critical,3/16/2017,10:04,right,false,2024,2,2_1_2_1,word_2_word_1,far,toothbrush,Clear_After,preschool,hanna,2013-09-19,,English,,,,,,female
IA7TJ,21,13,mal_plain,mal_sws,3,toothbrush,airplane,toothbrush,airplane,toothbrush,mal_plain_mal_sws,critical,3/16/2017,10:04,left,false,1539,3,2_1_2_1,word_2_word_1,far,airplane,Clear_After,preschool,hanna,2013-09-19,,English,,,,,,female
IA7TJ,22,7,mal_plain,mal_sws,1,horse,lolly,horse,horse,lolly,mal_plain_mal_sws,critical,3/16/2017,10:04,left,true,3040,4,2_1_2_1,word_2_word_1,far,horse,Clear_After,preschool,hanna,2013-09-19,,English,,,,,,female
IA7TJ,22,7,mal_plain,mal_sws,2,horse,lolly,horse,horse,lolly,mal_plain_mal_sws,critical,3/16/2017,10:04,left,false,2356,2,2_1_2_1,word_2_word_1,far,horse,Clear_After,preschool,hanna,2013-09-19,,English,,,,,,female
IA7TJ,22,7,mal_plain,mal_sws,3,horse,lolly,horse,horse,lolly,mal_plain_mal_sws,critical,3/16/2017,10:04,right,false,1331,4,2_1_2_1,word_2_word_1,far,lolly,Clear_After,preschool,hanna,2013-09-19,,English,,,,,,female
IA7TJ,23,6,mal_plain,mal_sws,1,bird,peas,bird,peas,bird,mal_plain_mal_sws,critical,3/16/2017,10:04,left,false,5080,2,2_1_2_1,word_2_word_1,far,peas,Clear_After,preschool,hanna,2013-09-19,,English,,,,,,female
IA7TJ,23,6,mal_plain,mal_sws,2,bird,peas,bird,peas,bird,mal_plain_mal_sws,critical,3/16/2017,10:04,right,false,2052,2,2_1_2_1,word_2_word_1,far,bird,Clear_After,preschool,hanna,2013-09-19,,English,,,,,,female
IA7TJ,23,6,mal_plain,mal_sws,3,bird,peas,bird,peas,bird,mal_plain_mal_sws,critical,3/16/2017,10:04,left,false,588,1,2_1_2_1,word_2_word_1,far,peas,Clear_After,preschool,hanna,2013-09-19,,English,,,,,,female
IA7TJ,24,18,mal_plain,mal_sws,1,ball,raspberry,ball,raspberry,ball,mal_plain_mal_sws,critical,3/16/2017,10:04,left,false,4642,2,1_2_1_1,word_2_word_1,far,raspberry,Clear_After,preschool,hanna,2013-09-19,,English,,,,,,female
IA7TJ,24,18,mal_plain,mal_sws,2,ball,raspberry,ball,raspberry,ball,mal_plain_mal_sws,critical,3/16/2017,10:04,right,false,3199,1,1_2_1_1,word_2_word_1,far,ball,Clear_After,preschool,hanna,2013-09-19,,English,,,,,,female
IA7TJ,24,18,mal_plain,mal_sws,3,ball,raspberry,ball,raspberry,ball,mal_plain_mal_sws,critical,3/16/2017,10:04,left,false,3045,2,1_2_1_1,word_2_word_1,far,raspberry,Clear_After,preschool,hanna,2013-09-19,,English,,,,,,female
IA7TJ,25,1,mal_plain,mal_sws,1,spoon,baby,spoon,spoon,baby,mal_plain_mal_sws,critical,3/16/2017,10:04,left,true,4811,5,1_2_1_1,word_1_word_2,far,spoon,Clear_After,preschool,hanna,2013-09-19,,English,,,,,,female
IA7TJ,25,1,mal_plain,mal_sws,2,spoon,baby,spoon,spoon,baby,mal_plain_mal_sws,critical,3/16/2017,10:04,left,false,2057,2,1_2_1_1,word_1_word_2,far,spoon,Clear_After,preschool,hanna,2013-09-19,,English,,,,,,female
IA7TJ,25,1,mal_plain,mal_sws,3,spoon,baby,spoon,spoon,baby,mal_plain_mal_sws,critical,3/16/2017,10:04,right,false,1726,1,1_2_1_1,word_1_word_2,far,baby,Clear_After,preschool,hanna,2013-09-19,,English,,,,,,female
