subject_id,trial_number,trial_id,plain,sws,instruction_number,sound1_item,sound2_item,sound3_item,left_image,right_image,sound_gender,trial_type,date_stamp,time_stamp,side_chosen,accuracy,rt,play_counter,order,pic_position,distance,chosen_pic,test_lang,testing_loc,tester,date_of_birth,ethnicity,native_lang,other_langs,parental_occ,dev_info,birth_order,num_siblings,gender
IdZrG,1,0,fem_plain,mal_sws,1,glasses,fireman,glasses,glasses,fireman,fem_plain_mal_sws,training,3/16/2017,10:49,left,true,7618,4,1_2_1_1,word_2_word_1,far,glasses,Clear_After,preschool,hanna,2014-02-15,,English,,,,2,1,male
IdZrG,1,0,fem_plain,mal_sws,2,glasses,fireman,glasses,glasses,fireman,fem_plain_mal_sws,training,3/16/2017,10:49,right,true,562,1,1_2_1_1,word_2_word_1,far,fireman,Clear_After,preschool,hanna,2014-02-15,,English,,,,2,1,male
IdZrG,1,0,fem_plain,mal_sws,3,glasses,fireman,glasses,glasses,fireman,fem_plain_mal_sws,training,3/16/2017,10:49,right,false,6015,1,1_2_1_1,word_2_word_1,far,fireman,Clear_After,preschool,hanna,2014-02-15,,English,,,,2,1,male
IdZrG,2,18,fem_plain,mal_sws,1,raspberry,ball,raspberry,raspberry,ball,fem_plain_mal_sws,critical,3/16/2017,10:49,right,false,11249,4,1_2_1_1,word_2_word_1,far,ball,Clear_After,preschool,hanna,2014-02-15,,English,,,,2,1,male
IdZrG,2,18,fem_plain,mal_sws,2,raspberry,ball,raspberry,raspberry,ball,fem_plain_mal_sws,critical,3/16/2017,10:49,left,false,3176,2,1_2_1_1,word_2_word_1,far,raspberry,Clear_After,preschool,hanna,2014-02-15,,English,,,,2,1,male
IdZrG,2,18,fem_plain,mal_sws,3,raspberry,ball,raspberry,raspberry,ball,fem_plain_mal_sws,critical,3/16/2017,10:49,right,false,5365,2,1_2_1_1,word_2_word_1,far,ball,Clear_After,preschool,hanna,2014-02-15,,English,,,,2,1,male
IdZrG,3,3,fem_plain,mal_sws,1,nose,trousers,nose,trousers,nose,fem_plain_mal_sws,critical,3/16/2017,10:49,right,true,6832,2,2_1_2_1,word_1_word_2,far,nose,Clear_After,preschool,hanna,2014-02-15,,English,,,,2,1,male
IdZrG,3,3,fem_plain,mal_sws,2,nose,trousers,nose,trousers,nose,fem_plain_mal_sws,critical,3/16/2017,10:49,right,false,3750,1,2_1_2_1,word_1_word_2,far,nose,Clear_After,preschool,hanna,2014-02-15,,English,,,,2,1,male
IdZrG,3,3,fem_plain,mal_sws,3,nose,trousers,nose,trousers,nose,fem_plain_mal_sws,critical,3/16/2017,10:49,left,false,2634,3,2_1_2_1,word_1_word_2,far,trousers,Clear_After,preschool,hanna,2014-02-15,,English,,,,2,1,male
IdZrG,4,17,fem_plain,mal_sws,1,ambulance,cake,cake,ambulance,cake,fem_plain_mal_sws,critical,3/16/2017,10:49,right,false,6731,4,1_2_2_1,word_2_word_1,near,cake,Clear_After,preschool,hanna,2014-02-15,,English,,,,2,1,male
IdZrG,4,17,fem_plain,mal_sws,2,ambulance,cake,cake,ambulance,cake,fem_plain_mal_sws,critical,3/16/2017,10:49,left,false,2432,1,1_2_2_1,word_2_word_1,near,ambulance,Clear_After,preschool,hanna,2014-02-15,,English,,,,2,1,male
IdZrG,4,17,fem_plain,mal_sws,3,ambulance,cake,cake,ambulance,cake,fem_plain_mal_sws,critical,3/16/2017,10:49,right,true,3904,1,1_2_2_1,word_2_word_1,near,cake,Clear_After,preschool,hanna,2014-02-15,,English,,,,2,1,male
IdZrG,5,5,fem_plain,mal_sws,1,orange,car,car,car,orange,fem_plain_mal_sws,critical,3/16/2017,10:49,right,true,5958,3,1_2_2_1,word_2_word_1,near,orange,Clear_After,preschool,hanna,2014-02-15,,English,,,,2,1,male
IdZrG,5,5,fem_plain,mal_sws,2,orange,car,car,car,orange,fem_plain_mal_sws,critical,3/16/2017,10:49,right,false,5728,2,1_2_2_1,word_2_word_1,near,orange,Clear_After,preschool,hanna,2014-02-15,,English,,,,2,1,male
IdZrG,5,5,fem_plain,mal_sws,3,orange,car,car,car,orange,fem_plain_mal_sws,critical,3/16/2017,10:49,left,true,2198,1,1_2_2_1,word_2_word_1,near,car,Clear_After,preschool,hanna,2014-02-15,,English,,,,2,1,male
IdZrG,6,11,fem_plain,mal_sws,1,book,lorry,lorry,lorry,book,fem_plain_mal_sws,critical,3/16/2017,10:49,right,true,5892,4,2_1_1_1,word_2_word_1,near,book,Clear_After,preschool,hanna,2014-02-15,,English,,,,2,1,male
IdZrG,6,11,fem_plain,mal_sws,2,book,lorry,lorry,lorry,book,fem_plain_mal_sws,critical,3/16/2017,10:49,right,false,4944,4,2_1_1_1,word_2_word_1,near,book,Clear_After,preschool,hanna,2014-02-15,,English,,,,2,1,male
IdZrG,6,11,fem_plain,mal_sws,3,book,lorry,lorry,lorry,book,fem_plain_mal_sws,critical,3/16/2017,10:49,left,true,2386,1,2_1_1_1,word_2_word_1,near,lorry,Clear_After,preschool,hanna,2014-02-15,,English,,,,2,1,male
IdZrG,7,4,fem_plain,mal_sws,1,strawberry,coat,strawberry,strawberry,coat,fem_plain_mal_sws,critical,3/16/2017,10:49,right,false,4470,3,2_1_2_1,word_2_word_1,far,coat,Clear_After,preschool,hanna,2014-02-15,,English,,,,2,1,male
IdZrG,7,4,fem_plain,mal_sws,2,strawberry,coat,strawberry,strawberry,coat,fem_plain_mal_sws,critical,3/16/2017,10:49,left,false,2239,2,2_1_2_1,word_2_word_1,far,strawberry,Clear_After,preschool,hanna,2014-02-15,,English,,,,2,1,male
IdZrG,7,4,fem_plain,mal_sws,3,strawberry,coat,strawberry,strawberry,coat,fem_plain_mal_sws,critical,3/16/2017,10:49,right,false,5145,1,2_1_2_1,word_2_word_1,far,coat,Clear_After,preschool,hanna,2014-02-15,,English,,,,2,1,male
IdZrG,8,13,fem_plain,mal_sws,1,airplane,toothbrush,toothbrush,airplane,toothbrush,fem_plain_mal_sws,critical,3/16/2017,10:49,right,false,4622,2,2_1_1_1,word_2_word_1,near,toothbrush,Clear_After,preschool,hanna,2014-02-15,,English,,,,2,1,male
IdZrG,8,13,fem_plain,mal_sws,2,airplane,toothbrush,toothbrush,airplane,toothbrush,fem_plain_mal_sws,critical,3/16/2017,10:49,left,false,2381,4,2_1_1_1,word_2_word_1,near,airplane,Clear_After,preschool,hanna,2014-02-15,,English,,,,2,1,male
IdZrG,8,13,fem_plain,mal_sws,3,airplane,toothbrush,toothbrush,airplane,toothbrush,fem_plain_mal_sws,critical,3/16/2017,10:49,right,true,2191,2,2_1_1_1,word_2_word_1,near,toothbrush,Clear_After,preschool,hanna,2014-02-15,,English,,,,2,1,male
IdZrG,9,10,fem_plain,mal_sws,1,tshirt,pig,pig,pig,tshirt,fem_plain_mal_sws,critical,3/16/2017,10:49,left,false,3526,1,2_1_1_1,word_1_word_2,near,pig,Clear_After,preschool,hanna,2014-02-15,,English,,,,2,1,male
IdZrG,9,10,fem_plain,mal_sws,2,tshirt,pig,pig,pig,tshirt,fem_plain_mal_sws,critical,3/16/2017,10:49,right,false,4745,2,2_1_1_1,word_1_word_2,near,tshirt,Clear_After,preschool,hanna,2014-02-15,,English,,,,2,1,male
IdZrG,9,10,fem_plain,mal_sws,3,tshirt,pig,pig,pig,tshirt,fem_plain_mal_sws,critical,3/16/2017,10:49,left,true,3492,1,2_1_1_1,word_1_word_2,near,pig,Clear_After,preschool,hanna,2014-02-15,,English,,,,2,1,male
IdZrG,10,6,fem_plain,mal_sws,1,peas,bird,peas,peas,bird,fem_plain_mal_sws,critical,3/16/2017,10:49,left,true,7170,3,1_2_1_1,word_2_word_1,far,peas,Clear_After,preschool,hanna,2014-02-15,,English,,,,2,1,male
IdZrG,10,6,fem_plain,mal_sws,2,peas,bird,peas,peas,bird,fem_plain_mal_sws,critical,3/16/2017,10:49,left,false,3305,1,1_2_1_1,word_2_word_1,far,peas,Clear_After,preschool,hanna,2014-02-15,,English,,,,2,1,male
IdZrG,10,6,fem_plain,mal_sws,3,peas,bird,peas,peas,bird,fem_plain_mal_sws,critical,3/16/2017,10:49,right,false,1901,2,1_2_1_1,word_2_word_1,far,bird,Clear_After,preschool,hanna,2014-02-15,,English,,,,2,1,male
IdZrG,11,16,fem_plain,mal_sws,1,banana,paintbrush,banana,banana,paintbrush,fem_plain_mal_sws,critical,3/16/2017,10:49,left,true,7145,4,2_1_2_1,word_2_word_1,far,banana,Clear_After,preschool,hanna,2014-02-15,,English,,,,2,1,male
IdZrG,11,16,fem_plain,mal_sws,2,banana,paintbrush,banana,banana,paintbrush,fem_plain_mal_sws,critical,3/16/2017,10:49,left,false,2648,2,2_1_2_1,word_2_word_1,far,banana,Clear_After,preschool,hanna,2014-02-15,,English,,,,2,1,male
IdZrG,11,16,fem_plain,mal_sws,3,banana,paintbrush,banana,banana,paintbrush,fem_plain_mal_sws,critical,3/16/2017,10:49,right,false,3126,2,2_1_2_1,word_2_word_1,far,paintbrush,Clear_After,preschool,hanna,2014-02-15,,English,,,,2,1,male
IdZrG,12,15,fem_plain,mal_sws,1,slide,pencil,pencil,pencil,slide,fem_plain_mal_sws,critical,3/16/2017,10:49,right,true,5670,6,1_2_2_1,word_2_word_1,near,slide,Clear_After,preschool,hanna,2014-02-15,,English,,,,2,1,male
IdZrG,12,15,fem_plain,mal_sws,2,slide,pencil,pencil,pencil,slide,fem_plain_mal_sws,critical,3/16/2017,10:49,right,false,2707,1,1_2_2_1,word_2_word_1,near,slide,Clear_After,preschool,hanna,2014-02-15,,English,,,,2,1,male
IdZrG,12,15,fem_plain,mal_sws,3,slide,pencil,pencil,pencil,slide,fem_plain_mal_sws,critical,3/16/2017,10:49,left,true,2368,1,1_2_2_1,word_2_word_1,near,pencil,Clear_After,preschool,hanna,2014-02-15,,English,,,,2,1,male
IdZrG,13,14,fem_plain,mal_sws,1,shoes,cheese,cheese,cheese,shoes,fem_plain_mal_sws,critical,3/16/2017,10:49,right,true,7026,4,2_1_1_1,word_1_word_2,near,shoes,Clear_After,preschool,hanna,2014-02-15,,English,,,,2,1,male
IdZrG,13,14,fem_plain,mal_sws,2,shoes,cheese,cheese,cheese,shoes,fem_plain_mal_sws,critical,3/16/2017,10:49,right,false,2805,2,2_1_1_1,word_1_word_2,near,shoes,Clear_After,preschool,hanna,2014-02-15,,English,,,,2,1,male
IdZrG,13,14,fem_plain,mal_sws,3,shoes,cheese,cheese,cheese,shoes,fem_plain_mal_sws,critical,3/16/2017,10:49,left,true,2473,1,2_1_1_1,word_1_word_2,near,cheese,Clear_After,preschool,hanna,2014-02-15,,English,,,,2,1,male
IdZrG,14,24,fem_plain,mal_sws,1,sink,fish,fish,sink,fish,fem_plain_mal_sws,critical,3/16/2017,10:49,right,false,7151,5,1_2_2_1,word_1_word_2,near,fish,Clear_After,preschool,hanna,2014-02-15,,English,,,,2,1,male
IdZrG,14,24,fem_plain,mal_sws,2,sink,fish,fish,sink,fish,fem_plain_mal_sws,critical,3/16/2017,10:49,left,false,2662,3,1_2_2_1,word_1_word_2,near,sink,Clear_After,preschool,hanna,2014-02-15,,English,,,,2,1,male
IdZrG,14,24,fem_plain,mal_sws,3,sink,fish,fish,sink,fish,fem_plain_mal_sws,critical,3/16/2017,10:49,right,true,6169,2,1_2_2_1,word_1_word_2,near,fish,Clear_After,preschool,hanna,2014-02-15,,English,,,,2,1,male
IdZrG,15,8,fem_plain,mal_sws,1,fire_engine,wellyboots,wellyboots,wellyboots,fire_engine,fem_plain_mal_sws,critical,3/16/2017,10:49,right,true,6814,2,1_2_2_1,word_1_word_2,near,fire_engine,Clear_After,preschool,hanna,2014-02-15,,English,,,,2,1,male
IdZrG,15,8,fem_plain,mal_sws,2,fire_engine,wellyboots,wellyboots,wellyboots,fire_engine,fem_plain_mal_sws,critical,3/16/2017,10:49,right,false,4517,1,1_2_2_1,word_1_word_2,near,fire_engine,Clear_After,preschool,hanna,2014-02-15,,English,,,,2,1,male
IdZrG,15,8,fem_plain,mal_sws,3,fire_engine,wellyboots,wellyboots,wellyboots,fire_engine,fem_plain_mal_sws,critical,3/16/2017,10:49,left,true,4565,1,1_2_2_1,word_1_word_2,near,wellyboots,Clear_After,preschool,hanna,2014-02-15,,English,,,,2,1,male
IdZrG,16,1,fem_plain,mal_sws,1,spoon,baby,spoon,baby,spoon,fem_plain_mal_sws,critical,3/16/2017,10:49,right,true,3518,2,2_1_2_1,word_2_word_1,far,spoon,Clear_After,preschool,hanna,2014-02-15,,English,,,,2,1,male
IdZrG,16,1,fem_plain,mal_sws,2,spoon,baby,spoon,baby,spoon,fem_plain_mal_sws,critical,3/16/2017,10:49,right,false,2347,2,2_1_2_1,word_2_word_1,far,spoon,Clear_After,preschool,hanna,2014-02-15,,English,,,,2,1,male
IdZrG,16,1,fem_plain,mal_sws,3,spoon,baby,spoon,baby,spoon,fem_plain_mal_sws,critical,3/16/2017,10:49,left,false,2350,3,2_1_2_1,word_2_word_1,far,baby,Clear_After,preschool,hanna,2014-02-15,,English,,,,2,1,male
IdZrG,17,22,fem_plain,mal_sws,1,bike,dog,bike,bike,dog,fem_plain_mal_sws,critical,3/16/2017,10:49,right,false,1956,2,1_2_1_1,word_1_word_2,far,dog,Clear_After,preschool,hanna,2014-02-15,,English,,,,2,1,male
IdZrG,17,22,fem_plain,mal_sws,2,bike,dog,bike,bike,dog,fem_plain_mal_sws,critical,3/16/2017,10:49,left,false,2332,2,1_2_1_1,word_1_word_2,far,bike,Clear_After,preschool,hanna,2014-02-15,,English,,,,2,1,male
IdZrG,17,22,fem_plain,mal_sws,3,bike,dog,bike,bike,dog,fem_plain_mal_sws,critical,3/16/2017,10:49,right,false,2652,1,1_2_1_1,word_1_word_2,far,dog,Clear_After,preschool,hanna,2014-02-15,,English,,,,2,1,male
IdZrG,18,9,fem_plain,mal_sws,1,pizza,window,window,pizza,window,fem_plain_mal_sws,critical,3/16/2017,10:49,right,false,2823,3,2_1_1_1,word_1_word_2,near,window,Clear_After,preschool,hanna,2014-02-15,,English,,,,2,1,male
IdZrG,18,9,fem_plain,mal_sws,2,pizza,window,window,pizza,window,fem_plain_mal_sws,critical,3/16/2017,10:49,left,false,3511,1,2_1_1_1,word_1_word_2,near,pizza,Clear_After,preschool,hanna,2014-02-15,,English,,,,2,1,male
IdZrG,18,9,fem_plain,mal_sws,3,pizza,window,window,pizza,window,fem_plain_mal_sws,critical,3/16/2017,10:49,right,true,2189,2,2_1_1_1,word_1_word_2,near,window,Clear_After,preschool,hanna,2014-02-15,,English,,,,2,1,male
IdZrG,19,7,fem_plain,mal_sws,1,lolly,horse,lolly,lolly,horse,fem_plain_mal_sws,critical,3/16/2017,10:49,right,false,5593,4,2_1_2_1,word_1_word_2,far,horse,Clear_After,preschool,hanna,2014-02-15,,English,,,,2,1,male
IdZrG,19,7,fem_plain,mal_sws,2,lolly,horse,lolly,lolly,horse,fem_plain_mal_sws,critical,3/16/2017,10:49,left,false,3775,1,2_1_2_1,word_1_word_2,far,lolly,Clear_After,preschool,hanna,2014-02-15,,English,,,,2,1,male
IdZrG,19,7,fem_plain,mal_sws,3,lolly,horse,lolly,lolly,horse,fem_plain_mal_sws,critical,3/16/2017,10:49,right,false,2033,1,2_1_2_1,word_1_word_2,far,horse,Clear_After,preschool,hanna,2014-02-15,,English,,,,2,1,male
IdZrG,20,2,fem_plain,mal_sws,1,bed,chicken,chicken,bed,chicken,fem_plain_mal_sws,critical,3/16/2017,10:49,right,false,2892,1,1_2_2_1,word_1_word_2,near,chicken,Clear_After,preschool,hanna,2014-02-15,,English,,,,2,1,male
IdZrG,20,2,fem_plain,mal_sws,2,bed,chicken,chicken,bed,chicken,fem_plain_mal_sws,critical,3/16/2017,10:49,left,false,3655,1,1_2_2_1,word_1_word_2,near,bed,Clear_After,preschool,hanna,2014-02-15,,English,,,,2,1,male
IdZrG,20,2,fem_plain,mal_sws,3,bed,chicken,chicken,bed,chicken,fem_plain_mal_sws,critical,3/16/2017,10:49,right,true,2921,1,1_2_2_1,word_1_word_2,near,chicken,Clear_After,preschool,hanna,2014-02-15,,English,,,,2,1,male
IdZrG,21,23,fem_plain,mal_sws,1,bath,teddy_bear,bath,bath,teddy_bear,fem_plain_mal_sws,critical,3/16/2017,10:49,left,true,6402,2,2_1_2_1,word_1_word_2,far,bath,Clear_After,preschool,hanna,2014-02-15,,English,,,,2,1,male
IdZrG,21,23,fem_plain,mal_sws,2,bath,teddy_bear,bath,bath,teddy_bear,fem_plain_mal_sws,critical,3/16/2017,10:49,left,false,4014,1,2_1_2_1,word_1_word_2,far,bath,Clear_After,preschool,hanna,2014-02-15,,English,,,,2,1,male
IdZrG,21,23,fem_plain,mal_sws,3,bath,teddy_bear,bath,bath,teddy_bear,fem_plain_mal_sws,critical,3/16/2017,10:49,right,false,2237,2,2_1_2_1,word_1_word_2,far,teddy_bear,Clear_After,preschool,hanna,2014-02-15,,English,,,,2,1,male
IdZrG,22,12,fem_plain,mal_sws,1,yoghurt,foot,yoghurt,foot,yoghurt,fem_plain_mal_sws,critical,3/16/2017,10:49,right,true,3337,1,1_2_1_1,word_1_word_2,far,yoghurt,Clear_After,preschool,hanna,2014-02-15,,English,,,,2,1,male
IdZrG,22,12,fem_plain,mal_sws,2,yoghurt,foot,yoghurt,foot,yoghurt,fem_plain_mal_sws,critical,3/16/2017,10:49,right,false,2597,2,1_2_1_1,word_1_word_2,far,yoghurt,Clear_After,preschool,hanna,2014-02-15,,English,,,,2,1,male
IdZrG,22,12,fem_plain,mal_sws,3,yoghurt,foot,yoghurt,foot,yoghurt,fem_plain_mal_sws,critical,3/16/2017,10:49,left,false,1783,1,1_2_1_1,word_1_word_2,far,foot,Clear_After,preschool,hanna,2014-02-15,,English,,,,2,1,male
IdZrG,23,21,fem_plain,mal_sws,1,sheep,frog,sheep,frog,sheep,fem_plain_mal_sws,critical,3/16/2017,10:49,left,false,8347,2,1_2_1_1,word_1_word_2,far,frog,Clear_After,preschool,hanna,2014-02-15,,English,,,,2,1,male
IdZrG,23,21,fem_plain,mal_sws,2,sheep,frog,sheep,frog,sheep,fem_plain_mal_sws,critical,3/16/2017,10:49,right,false,1877,1,1_2_1_1,word_1_word_2,far,sheep,Clear_After,preschool,hanna,2014-02-15,,English,,,,2,1,male
IdZrG,23,21,fem_plain,mal_sws,3,sheep,frog,sheep,frog,sheep,fem_plain_mal_sws,critical,3/16/2017,10:49,left,false,3168,1,1_2_1_1,word_1_word_2,far,frog,Clear_After,preschool,hanna,2014-02-15,,English,,,,2,1,male
IdZrG,24,20,fem_plain,mal_sws,1,rabbit,jumper,jumper,jumper,rabbit,fem_plain_mal_sws,critical,3/16/2017,10:49,left,false,4286,4,2_1_1_1,word_1_word_2,near,jumper,Clear_After,preschool,hanna,2014-02-15,,English,,,,2,1,male
IdZrG,24,20,fem_plain,mal_sws,2,rabbit,jumper,jumper,jumper,rabbit,fem_plain_mal_sws,critical,3/16/2017,10:49,right,false,3733,2,2_1_1_1,word_1_word_2,near,rabbit,Clear_After,preschool,hanna,2014-02-15,,English,,,,2,1,male
IdZrG,24,20,fem_plain,mal_sws,3,rabbit,jumper,jumper,jumper,rabbit,fem_plain_mal_sws,critical,3/16/2017,10:49,left,true,2401,2,2_1_1_1,word_1_word_2,near,jumper,Clear_After,preschool,hanna,2014-02-15,,English,,,,2,1,male
IdZrG,25,19,fem_plain,mal_sws,1,santa,building_blocks,santa,santa,building_blocks,fem_plain_mal_sws,critical,3/16/2017,10:49,right,false,3150,2,1_2_1_1,word_1_word_2,far,building_blocks,Clear_After,preschool,hanna,2014-02-15,,English,,,,2,1,male
IdZrG,25,19,fem_plain,mal_sws,2,santa,building_blocks,santa,santa,building_blocks,fem_plain_mal_sws,critical,3/16/2017,10:49,left,false,3025,2,1_2_1_1,word_1_word_2,far,santa,Clear_After,preschool,hanna,2014-02-15,,English,,,,2,1,male
IdZrG,25,19,fem_plain,mal_sws,3,santa,building_blocks,santa,santa,building_blocks,fem_plain_mal_sws,critical,3/16/2017,10:49,right,false,2428,1,1_2_1_1,word_1_word_2,far,building_blocks,Clear_After,preschool,hanna,2014-02-15,,English,,,,2,1,male
