subject_id,trial_number,trial_id,plain,sws,instruction_number,sound1_item,sound2_item,sound3_item,left_image,right_image,sound_gender,trial_type,date_stamp,time_stamp,side_chosen,accuracy,rt,play_counter,order,pic_position,distance,chosen_pic,test_lang,testing_loc,tester,date_of_birth,ethnicity,native_lang,other_langs,parental_occ,dev_info,birth_order,num_siblings,gender
IMLI0,1,0,mal_plain,mal_sws,1,glasses,fireman,glasses,glasses,fireman,mal_plain_mal_sws,training,3/6/2017,14:35,left,true,4983,1,1_2_1_1,word_2_word_1,far,glasses,Clear_Before,preschool,hanna,2012-12-03,,English,,,,1,1,female
IMLI0,1,0,mal_plain,mal_sws,2,glasses,fireman,glasses,glasses,fireman,mal_plain_mal_sws,training,3/6/2017,14:35,right,true,2766,1,1_2_1_1,word_2_word_1,far,fireman,Clear_Before,preschool,hanna,2012-12-03,,English,,,,1,1,female
IMLI0,1,0,mal_plain,mal_sws,3,glasses,fireman,glasses,glasses,fireman,mal_plain_mal_sws,training,3/6/2017,14:35,left,true,4177,4,1_2_1_1,word_2_word_1,far,glasses,Clear_Before,preschool,hanna,2012-12-03,,English,,,,1,1,female
IMLI0,2,22,mal_plain,mal_sws,1,dog,bike,bike,dog,bike,mal_plain_mal_sws,critical,3/6/2017,14:35,left,true,1674,4,1_2_2_1,word_2_word_1,near,dog,Clear_Before,preschool,hanna,2012-12-03,,English,,,,1,1,female
IMLI0,2,22,mal_plain,mal_sws,2,dog,bike,bike,dog,bike,mal_plain_mal_sws,critical,3/6/2017,14:35,right,true,1891,4,1_2_2_1,word_2_word_1,near,bike,Clear_Before,preschool,hanna,2012-12-03,,English,,,,1,1,female
IMLI0,2,22,mal_plain,mal_sws,3,dog,bike,bike,dog,bike,mal_plain_mal_sws,critical,3/6/2017,14:35,left,false,3537,4,1_2_2_1,word_2_word_1,near,dog,Clear_Before,preschool,hanna,2012-12-03,,English,,,,1,1,female
IMLI0,3,10,mal_plain,mal_sws,1,tshirt,pig,tshirt,tshirt,pig,mal_plain_mal_sws,critical,3/6/2017,14:35,left,true,2550,2,1_2_1_1,word_2_word_1,far,tshirt,Clear_Before,preschool,hanna,2012-12-03,,English,,,,1,1,female
IMLI0,3,10,mal_plain,mal_sws,2,tshirt,pig,tshirt,tshirt,pig,mal_plain_mal_sws,critical,3/6/2017,14:35,right,true,1902,1,1_2_1_1,word_2_word_1,far,pig,Clear_Before,preschool,hanna,2012-12-03,,English,,,,1,1,female
IMLI0,3,10,mal_plain,mal_sws,3,tshirt,pig,tshirt,tshirt,pig,mal_plain_mal_sws,critical,3/6/2017,14:35,left,true,6470,1,1_2_1_1,word_2_word_1,far,tshirt,Clear_Before,preschool,hanna,2012-12-03,,English,,,,1,1,female
IMLI0,4,5,mal_plain,mal_sws,1,car,orange,orange,car,orange,mal_plain_mal_sws,critical,3/6/2017,14:35,left,true,2131,2,2_1_1_1,word_2_word_1,near,car,Clear_Before,preschool,hanna,2012-12-03,,English,,,,1,1,female
IMLI0,4,5,mal_plain,mal_sws,2,car,orange,orange,car,orange,mal_plain_mal_sws,critical,3/6/2017,14:35,right,true,2470,1,2_1_1_1,word_2_word_1,near,orange,Clear_Before,preschool,hanna,2012-12-03,,English,,,,1,1,female
IMLI0,4,5,mal_plain,mal_sws,3,car,orange,orange,car,orange,mal_plain_mal_sws,critical,3/6/2017,14:35,left,false,4604,2,2_1_1_1,word_2_word_1,near,car,Clear_Before,preschool,hanna,2012-12-03,,English,,,,1,1,female
IMLI0,5,2,mal_plain,mal_sws,1,chicken,bed,chicken,chicken,bed,mal_plain_mal_sws,critical,3/6/2017,14:35,left,true,2705,2,2_1_2_1,word_2_word_1,far,chicken,Clear_Before,preschool,hanna,2012-12-03,,English,,,,1,1,female
IMLI0,5,2,mal_plain,mal_sws,2,chicken,bed,chicken,chicken,bed,mal_plain_mal_sws,critical,3/6/2017,14:35,right,true,1999,2,2_1_2_1,word_2_word_1,far,bed,Clear_Before,preschool,hanna,2012-12-03,,English,,,,1,1,female
IMLI0,5,2,mal_plain,mal_sws,3,chicken,bed,chicken,chicken,bed,mal_plain_mal_sws,critical,3/6/2017,14:35,left,true,4181,2,2_1_2_1,word_2_word_1,far,chicken,Clear_Before,preschool,hanna,2012-12-03,,English,,,,1,1,female
IMLI0,6,14,mal_plain,mal_sws,1,shoes,cheese,cheese,shoes,cheese,mal_plain_mal_sws,critical,3/6/2017,14:35,left,true,2256,2,1_2_2_1,word_2_word_1,near,shoes,Clear_Before,preschool,hanna,2012-12-03,,English,,,,1,1,female
IMLI0,6,14,mal_plain,mal_sws,2,shoes,cheese,cheese,shoes,cheese,mal_plain_mal_sws,critical,3/6/2017,14:35,right,true,2606,1,1_2_2_1,word_2_word_1,near,cheese,Clear_Before,preschool,hanna,2012-12-03,,English,,,,1,1,female
IMLI0,6,14,mal_plain,mal_sws,3,shoes,cheese,cheese,shoes,cheese,mal_plain_mal_sws,critical,3/6/2017,14:35,right,true,4365,1,1_2_2_1,word_2_word_1,near,cheese,Clear_Before,preschool,hanna,2012-12-03,,English,,,,1,1,female
IMLI0,7,8,mal_plain,mal_sws,1,wellyboots,fire_engine,fire_engine,fire_engine,wellyboots,mal_plain_mal_sws,critical,3/6/2017,14:35,right,true,2446,2,1_2_2_1,word_2_word_1,near,wellyboots,Clear_Before,preschool,hanna,2012-12-03,,English,,,,1,1,female
IMLI0,7,8,mal_plain,mal_sws,2,wellyboots,fire_engine,fire_engine,fire_engine,wellyboots,mal_plain_mal_sws,critical,3/6/2017,14:35,left,true,2660,2,1_2_2_1,word_2_word_1,near,fire_engine,Clear_Before,preschool,hanna,2012-12-03,,English,,,,1,1,female
IMLI0,7,8,mal_plain,mal_sws,3,wellyboots,fire_engine,fire_engine,fire_engine,wellyboots,mal_plain_mal_sws,critical,3/6/2017,14:35,right,false,4230,1,1_2_2_1,word_2_word_1,near,wellyboots,Clear_Before,preschool,hanna,2012-12-03,,English,,,,1,1,female
IMLI0,8,23,mal_plain,mal_sws,1,bath,teddy_bear,teddy_bear,bath,teddy_bear,mal_plain_mal_sws,critical,3/6/2017,14:35,left,true,2167,2,1_2_2_1,word_1_word_2,near,bath,Clear_Before,preschool,hanna,2012-12-03,,English,,,,1,1,female
IMLI0,8,23,mal_plain,mal_sws,2,bath,teddy_bear,teddy_bear,bath,teddy_bear,mal_plain_mal_sws,critical,3/6/2017,14:35,right,true,1651,1,1_2_2_1,word_1_word_2,near,teddy_bear,Clear_Before,preschool,hanna,2012-12-03,,English,,,,1,1,female
IMLI0,8,23,mal_plain,mal_sws,3,bath,teddy_bear,teddy_bear,bath,teddy_bear,mal_plain_mal_sws,critical,3/6/2017,14:35,left,false,2260,2,1_2_2_1,word_1_word_2,near,bath,Clear_Before,preschool,hanna,2012-12-03,,English,,,,1,1,female
IMLI0,9,17,mal_plain,mal_sws,1,cake,ambulance,cake,cake,ambulance,mal_plain_mal_sws,critical,3/6/2017,14:35,left,true,1949,2,2_1_2_1,word_1_word_2,far,cake,Clear_Before,preschool,hanna,2012-12-03,,English,,,,1,1,female
IMLI0,9,17,mal_plain,mal_sws,2,cake,ambulance,cake,cake,ambulance,mal_plain_mal_sws,critical,3/6/2017,14:35,right,true,1806,3,2_1_2_1,word_1_word_2,far,ambulance,Clear_Before,preschool,hanna,2012-12-03,,English,,,,1,1,female
IMLI0,9,17,mal_plain,mal_sws,3,cake,ambulance,cake,cake,ambulance,mal_plain_mal_sws,critical,3/6/2017,14:35,left,true,2549,2,2_1_2_1,word_1_word_2,far,cake,Clear_Before,preschool,hanna,2012-12-03,,English,,,,1,1,female
IMLI0,10,7,mal_plain,mal_sws,1,lolly,horse,horse,lolly,horse,mal_plain_mal_sws,critical,3/6/2017,14:35,left,true,2442,2,2_1_1_1,word_1_word_2,near,lolly,Clear_Before,preschool,hanna,2012-12-03,,English,,,,1,1,female
IMLI0,10,7,mal_plain,mal_sws,2,lolly,horse,horse,lolly,horse,mal_plain_mal_sws,critical,3/6/2017,14:35,right,true,2301,1,2_1_1_1,word_1_word_2,near,horse,Clear_Before,preschool,hanna,2012-12-03,,English,,,,1,1,female
IMLI0,10,7,mal_plain,mal_sws,3,lolly,horse,horse,lolly,horse,mal_plain_mal_sws,critical,3/6/2017,14:35,right,true,4143,2,2_1_1_1,word_1_word_2,near,horse,Clear_Before,preschool,hanna,2012-12-03,,English,,,,1,1,female
IMLI0,11,11,mal_plain,mal_sws,1,lorry,book,lorry,book,lorry,mal_plain_mal_sws,critical,3/6/2017,14:35,right,true,2790,2,1_2_1_1,word_1_word_2,far,lorry,Clear_Before,preschool,hanna,2012-12-03,,English,,,,1,1,female
IMLI0,11,11,mal_plain,mal_sws,2,lorry,book,lorry,book,lorry,mal_plain_mal_sws,critical,3/6/2017,14:35,left,true,1475,2,1_2_1_1,word_1_word_2,far,book,Clear_Before,preschool,hanna,2012-12-03,,English,,,,1,1,female
IMLI0,11,11,mal_plain,mal_sws,3,lorry,book,lorry,book,lorry,mal_plain_mal_sws,critical,3/6/2017,14:35,right,true,2535,2,1_2_1_1,word_1_word_2,far,lorry,Clear_Before,preschool,hanna,2012-12-03,,English,,,,1,1,female
IMLI0,12,1,mal_plain,mal_sws,1,spoon,baby,spoon,spoon,baby,mal_plain_mal_sws,critical,3/6/2017,14:35,left,true,2169,2,2_1_2_1,word_1_word_2,far,spoon,Clear_Before,preschool,hanna,2012-12-03,,English,,,,1,1,female
IMLI0,12,1,mal_plain,mal_sws,2,spoon,baby,spoon,spoon,baby,mal_plain_mal_sws,critical,3/6/2017,14:35,right,true,1370,2,2_1_2_1,word_1_word_2,far,baby,Clear_Before,preschool,hanna,2012-12-03,,English,,,,1,1,female
IMLI0,12,1,mal_plain,mal_sws,3,spoon,baby,spoon,spoon,baby,mal_plain_mal_sws,critical,3/6/2017,14:35,right,false,3757,2,2_1_2_1,word_1_word_2,far,baby,Clear_Before,preschool,hanna,2012-12-03,,English,,,,1,1,female
IMLI0,13,21,mal_plain,mal_sws,1,sheep,frog,frog,sheep,frog,mal_plain_mal_sws,critical,3/6/2017,14:35,left,true,2315,2,2_1_1_1,word_2_word_1,near,sheep,Clear_Before,preschool,hanna,2012-12-03,,English,,,,1,1,female
IMLI0,13,21,mal_plain,mal_sws,2,sheep,frog,frog,sheep,frog,mal_plain_mal_sws,critical,3/6/2017,14:35,right,true,2305,1,2_1_1_1,word_2_word_1,near,frog,Clear_Before,preschool,hanna,2012-12-03,,English,,,,1,1,female
IMLI0,13,21,mal_plain,mal_sws,3,sheep,frog,frog,sheep,frog,mal_plain_mal_sws,critical,3/6/2017,14:35,left,false,3228,2,2_1_1_1,word_2_word_1,near,sheep,Clear_Before,preschool,hanna,2012-12-03,,English,,,,1,1,female
IMLI0,14,16,mal_plain,mal_sws,1,paintbrush,banana,paintbrush,paintbrush,banana,mal_plain_mal_sws,critical,3/6/2017,14:35,left,true,3481,2,2_1_2_1,word_1_word_2,far,paintbrush,Clear_Before,preschool,hanna,2012-12-03,,English,,,,1,1,female
IMLI0,14,16,mal_plain,mal_sws,2,paintbrush,banana,paintbrush,paintbrush,banana,mal_plain_mal_sws,critical,3/6/2017,14:35,right,true,1796,1,2_1_2_1,word_1_word_2,far,banana,Clear_Before,preschool,hanna,2012-12-03,,English,,,,1,1,female
IMLI0,14,16,mal_plain,mal_sws,3,paintbrush,banana,paintbrush,paintbrush,banana,mal_plain_mal_sws,critical,3/6/2017,14:35,right,false,3309,1,2_1_2_1,word_1_word_2,far,banana,Clear_Before,preschool,hanna,2012-12-03,,English,,,,1,1,female
IMLI0,15,4,mal_plain,mal_sws,1,coat,strawberry,coat,coat,strawberry,mal_plain_mal_sws,critical,3/6/2017,14:35,left,true,2162,2,2_1_2_1,word_1_word_2,far,coat,Clear_Before,preschool,hanna,2012-12-03,,English,,,,1,1,female
IMLI0,15,4,mal_plain,mal_sws,2,coat,strawberry,coat,coat,strawberry,mal_plain_mal_sws,critical,3/6/2017,14:35,right,true,1850,1,2_1_2_1,word_1_word_2,far,strawberry,Clear_Before,preschool,hanna,2012-12-03,,English,,,,1,1,female
IMLI0,15,4,mal_plain,mal_sws,3,coat,strawberry,coat,coat,strawberry,mal_plain_mal_sws,critical,3/6/2017,14:35,right,false,4140,1,2_1_2_1,word_1_word_2,far,strawberry,Clear_Before,preschool,hanna,2012-12-03,,English,,,,1,1,female
IMLI0,16,19,mal_plain,mal_sws,1,santa,building_blocks,building_blocks,building_blocks,santa,mal_plain_mal_sws,critical,3/6/2017,14:35,right,true,2488,2,2_1_1_1,word_2_word_1,near,santa,Clear_Before,preschool,hanna,2012-12-03,,English,,,,1,1,female
IMLI0,16,19,mal_plain,mal_sws,2,santa,building_blocks,building_blocks,building_blocks,santa,mal_plain_mal_sws,critical,3/6/2017,14:35,left,true,2421,2,2_1_1_1,word_2_word_1,near,building_blocks,Clear_Before,preschool,hanna,2012-12-03,,English,,,,1,1,female
IMLI0,16,19,mal_plain,mal_sws,3,santa,building_blocks,building_blocks,building_blocks,santa,mal_plain_mal_sws,critical,3/6/2017,14:35,right,false,4001,1,2_1_1_1,word_2_word_1,near,santa,Clear_Before,preschool,hanna,2012-12-03,,English,,,,1,1,female
IMLI0,17,6,mal_plain,mal_sws,1,peas,bird,peas,peas,bird,mal_plain_mal_sws,critical,3/6/2017,14:35,left,true,1907,2,2_1_2_1,word_2_word_1,far,peas,Clear_Before,preschool,hanna,2012-12-03,,English,,,,1,1,female
IMLI0,17,6,mal_plain,mal_sws,2,peas,bird,peas,peas,bird,mal_plain_mal_sws,critical,3/6/2017,14:35,right,true,1146,2,2_1_2_1,word_2_word_1,far,bird,Clear_Before,preschool,hanna,2012-12-03,,English,,,,1,1,female
IMLI0,17,6,mal_plain,mal_sws,3,peas,bird,peas,peas,bird,mal_plain_mal_sws,critical,3/6/2017,14:35,right,false,3410,2,2_1_2_1,word_2_word_1,far,bird,Clear_Before,preschool,hanna,2012-12-03,,English,,,,1,1,female
IMLI0,18,13,mal_plain,mal_sws,1,airplane,toothbrush,airplane,toothbrush,airplane,mal_plain_mal_sws,critical,3/6/2017,14:35,right,true,6158,6,1_2_1_1,word_1_word_2,far,airplane,Clear_Before,preschool,hanna,2012-12-03,,English,,,,1,1,female
IMLI0,18,13,mal_plain,mal_sws,2,airplane,toothbrush,airplane,toothbrush,airplane,mal_plain_mal_sws,critical,3/6/2017,14:35,right,false,2852,2,1_2_1_1,word_1_word_2,far,airplane,Clear_Before,preschool,hanna,2012-12-03,,English,,,,1,1,female
IMLI0,18,13,mal_plain,mal_sws,3,airplane,toothbrush,airplane,toothbrush,airplane,mal_plain_mal_sws,critical,3/6/2017,14:35,left,false,1654,2,1_2_1_1,word_1_word_2,far,toothbrush,Clear_Before,preschool,hanna,2012-12-03,,English,,,,1,1,female
IMLI0,19,15,mal_plain,mal_sws,1,pencil,slide,pencil,pencil,slide,mal_plain_mal_sws,critical,3/6/2017,14:35,left,true,4207,2,1_2_1_1,word_2_word_1,far,pencil,Clear_Before,preschool,hanna,2012-12-03,,English,,,,1,1,female
IMLI0,19,15,mal_plain,mal_sws,2,pencil,slide,pencil,pencil,slide,mal_plain_mal_sws,critical,3/6/2017,14:35,left,false,2317,1,1_2_1_1,word_2_word_1,far,pencil,Clear_Before,preschool,hanna,2012-12-03,,English,,,,1,1,female
IMLI0,19,15,mal_plain,mal_sws,3,pencil,slide,pencil,pencil,slide,mal_plain_mal_sws,critical,3/6/2017,14:35,right,false,2056,2,1_2_1_1,word_2_word_1,far,slide,Clear_Before,preschool,hanna,2012-12-03,,English,,,,1,1,female
IMLI0,20,20,mal_plain,mal_sws,1,rabbit,jumper,jumper,jumper,rabbit,mal_plain_mal_sws,critical,3/6/2017,14:35,right,true,4739,2,2_1_1_1,word_1_word_2,near,rabbit,Clear_Before,preschool,hanna,2012-12-03,,English,,,,1,1,female
IMLI0,20,20,mal_plain,mal_sws,2,rabbit,jumper,jumper,jumper,rabbit,mal_plain_mal_sws,critical,3/6/2017,14:35,right,false,2112,1,2_1_1_1,word_1_word_2,near,rabbit,Clear_Before,preschool,hanna,2012-12-03,,English,,,,1,1,female
IMLI0,20,20,mal_plain,mal_sws,3,rabbit,jumper,jumper,jumper,rabbit,mal_plain_mal_sws,critical,3/6/2017,14:35,left,true,2377,2,2_1_1_1,word_1_word_2,near,jumper,Clear_Before,preschool,hanna,2012-12-03,,English,,,,1,1,female
IMLI0,21,24,mal_plain,mal_sws,1,sink,fish,fish,sink,fish,mal_plain_mal_sws,critical,3/6/2017,14:35,right,false,3027,4,1_2_2_1,word_1_word_2,near,fish,Clear_Before,preschool,hanna,2012-12-03,,English,,,,1,1,female
IMLI0,21,24,mal_plain,mal_sws,2,sink,fish,fish,sink,fish,mal_plain_mal_sws,critical,3/6/2017,14:35,left,false,2071,2,1_2_2_1,word_1_word_2,near,sink,Clear_Before,preschool,hanna,2012-12-03,,English,,,,1,1,female
IMLI0,21,24,mal_plain,mal_sws,3,sink,fish,fish,sink,fish,mal_plain_mal_sws,critical,3/6/2017,14:35,right,true,2887,2,1_2_2_1,word_1_word_2,near,fish,Clear_Before,preschool,hanna,2012-12-03,,English,,,,1,1,female
IMLI0,22,12,mal_plain,mal_sws,1,foot,yoghurt,yoghurt,foot,yoghurt,mal_plain_mal_sws,critical,3/6/2017,14:35,left,true,5160,1,2_1_1_1,word_1_word_2,near,foot,Clear_Before,preschool,hanna,2012-12-03,,English,,,,1,1,female
IMLI0,22,12,mal_plain,mal_sws,2,foot,yoghurt,yoghurt,foot,yoghurt,mal_plain_mal_sws,critical,3/6/2017,14:35,left,false,2316,2,2_1_1_1,word_1_word_2,near,foot,Clear_Before,preschool,hanna,2012-12-03,,English,,,,1,1,female
IMLI0,22,12,mal_plain,mal_sws,3,foot,yoghurt,yoghurt,foot,yoghurt,mal_plain_mal_sws,critical,3/6/2017,14:35,right,true,3218,2,2_1_1_1,word_1_word_2,near,yoghurt,Clear_Before,preschool,hanna,2012-12-03,,English,,,,1,1,female
IMLI0,23,3,mal_plain,mal_sws,1,trousers,nose,nose,trousers,nose,mal_plain_mal_sws,critical,3/6/2017,14:35,right,false,6499,2,1_2_2_1,word_1_word_2,near,nose,Clear_Before,preschool,hanna,2012-12-03,,English,,,,1,1,female
IMLI0,23,3,mal_plain,mal_sws,2,trousers,nose,nose,trousers,nose,mal_plain_mal_sws,critical,3/6/2017,14:35,left,false,2456,1,1_2_2_1,word_1_word_2,near,trousers,Clear_Before,preschool,hanna,2012-12-03,,English,,,,1,1,female
IMLI0,23,3,mal_plain,mal_sws,3,trousers,nose,nose,trousers,nose,mal_plain_mal_sws,critical,3/6/2017,14:35,right,true,2427,1,1_2_2_1,word_1_word_2,near,nose,Clear_Before,preschool,hanna,2012-12-03,,English,,,,1,1,female
IMLI0,24,9,mal_plain,mal_sws,1,pizza,window,pizza,pizza,window,mal_plain_mal_sws,critical,3/6/2017,14:35,right,false,5076,1,1_2_1_1,word_1_word_2,far,window,Clear_Before,preschool,hanna,2012-12-03,,English,,,,1,1,female
IMLI0,24,9,mal_plain,mal_sws,2,pizza,window,pizza,pizza,window,mal_plain_mal_sws,critical,3/6/2017,14:35,left,false,1851,1,1_2_1_1,word_1_word_2,far,pizza,Clear_Before,preschool,hanna,2012-12-03,,English,,,,1,1,female
IMLI0,24,9,mal_plain,mal_sws,3,pizza,window,pizza,pizza,window,mal_plain_mal_sws,critical,3/6/2017,14:35,right,false,1590,1,1_2_1_1,word_1_word_2,far,window,Clear_Before,preschool,hanna,2012-12-03,,English,,,,1,1,female
IMLI0,25,18,mal_plain,mal_sws,1,ball,raspberry,ball,ball,raspberry,mal_plain_mal_sws,critical,3/6/2017,14:35,left,true,2609,2,1_2_1_1,word_1_word_2,far,ball,Clear_Before,preschool,hanna,2012-12-03,,English,,,,1,1,female
IMLI0,25,18,mal_plain,mal_sws,2,ball,raspberry,ball,ball,raspberry,mal_plain_mal_sws,critical,3/6/2017,14:35,right,true,1966,1,1_2_1_1,word_1_word_2,far,raspberry,Clear_Before,preschool,hanna,2012-12-03,,English,,,,1,1,female
IMLI0,25,18,mal_plain,mal_sws,3,ball,raspberry,ball,ball,raspberry,mal_plain_mal_sws,critical,3/6/2017,14:35,left,true,450,1,1_2_1_1,word_1_word_2,far,ball,Clear_Before,preschool,hanna,2012-12-03,,English,,,,1,1,female
