subject_id,trial_number,trial_id,plain,sws,instruction_number,sound1_item,sound2_item,sound3_item,left_image,right_image,sound_gender,trial_type,date_stamp,time_stamp,side_chosen,accuracy,rt,play_counter,order,pic_position,distance,chosen_pic,test_lang,testing_loc,tester,date_of_birth,ethnicity,native_lang,other_langs,parental_occ,dev_info,birth_order,num_siblings,gender
J1smF,1,0,fem_plain,mal_sws,1,fireman,glasses,glasses,fireman,glasses,fem_plain_mal_sws,training,3/9/2017,10:46,left,true,2478,4,2_1_1_1,word_1_word_2,near,fireman,Clear_Before,preschool,hanna,2012-03-07,,English,,,,4,3,female
J1smF,1,0,fem_plain,mal_sws,2,fireman,glasses,glasses,fireman,glasses,fem_plain_mal_sws,training,3/9/2017,10:46,right,true,1550,2,2_1_1_1,word_1_word_2,near,glasses,Clear_Before,preschool,hanna,2012-03-07,,English,,,,4,3,female
J1smF,1,0,fem_plain,mal_sws,3,fireman,glasses,glasses,fireman,glasses,fem_plain_mal_sws,training,3/9/2017,10:46,right,true,2788,4,2_1_1_1,word_1_word_2,near,glasses,Clear_Before,preschool,hanna,2012-03-07,,English,,,,4,3,female
J1smF,2,15,fem_plain,mal_sws,1,slide,pencil,pencil,pencil,slide,fem_plain_mal_sws,critical,3/9/2017,10:46,right,true,3132,2,1_2_2_1,word_2_word_1,near,slide,Clear_Before,preschool,hanna,2012-03-07,,English,,,,4,3,female
J1smF,2,15,fem_plain,mal_sws,2,slide,pencil,pencil,pencil,slide,fem_plain_mal_sws,critical,3/9/2017,10:46,left,true,810,1,1_2_2_1,word_2_word_1,near,pencil,Clear_Before,preschool,hanna,2012-03-07,,English,,,,4,3,female
J1smF,2,15,fem_plain,mal_sws,3,slide,pencil,pencil,pencil,slide,fem_plain_mal_sws,critical,3/9/2017,10:46,right,false,2179,4,1_2_2_1,word_2_word_1,near,slide,Clear_Before,preschool,hanna,2012-03-07,,English,,,,4,3,female
J1smF,3,24,fem_plain,mal_sws,1,sink,fish,sink,fish,sink,fem_plain_mal_sws,critical,3/9/2017,10:46,right,true,2869,2,2_1_2_1,word_2_word_1,far,sink,Clear_Before,preschool,hanna,2012-03-07,,English,,,,4,3,female
J1smF,3,24,fem_plain,mal_sws,2,sink,fish,sink,fish,sink,fem_plain_mal_sws,critical,3/9/2017,10:46,left,true,1645,2,2_1_2_1,word_2_word_1,far,fish,Clear_Before,preschool,hanna,2012-03-07,,English,,,,4,3,female
J1smF,3,24,fem_plain,mal_sws,3,sink,fish,sink,fish,sink,fem_plain_mal_sws,critical,3/9/2017,10:46,right,true,4204,4,2_1_2_1,word_2_word_1,far,sink,Clear_Before,preschool,hanna,2012-03-07,,English,,,,4,3,female
J1smF,4,6,fem_plain,mal_sws,1,peas,bird,peas,peas,bird,fem_plain_mal_sws,critical,3/9/2017,10:46,left,true,2317,2,2_1_2_1,word_2_word_1,far,peas,Clear_Before,preschool,hanna,2012-03-07,,English,,,,4,3,female
J1smF,4,6,fem_plain,mal_sws,2,peas,bird,peas,peas,bird,fem_plain_mal_sws,critical,3/9/2017,10:46,right,true,2476,1,2_1_2_1,word_2_word_1,far,bird,Clear_Before,preschool,hanna,2012-03-07,,English,,,,4,3,female
J1smF,4,6,fem_plain,mal_sws,3,peas,bird,peas,peas,bird,fem_plain_mal_sws,critical,3/9/2017,10:46,left,true,2021,4,2_1_2_1,word_2_word_1,far,peas,Clear_Before,preschool,hanna,2012-03-07,,English,,,,4,3,female
J1smF,5,21,fem_plain,mal_sws,1,sheep,frog,frog,frog,sheep,fem_plain_mal_sws,critical,3/9/2017,10:46,right,true,2199,2,1_2_2_1,word_1_word_2,near,sheep,Clear_Before,preschool,hanna,2012-03-07,,English,,,,4,3,female
J1smF,5,21,fem_plain,mal_sws,2,sheep,frog,frog,frog,sheep,fem_plain_mal_sws,critical,3/9/2017,10:46,left,true,1531,1,1_2_2_1,word_1_word_2,near,frog,Clear_Before,preschool,hanna,2012-03-07,,English,,,,4,3,female
J1smF,5,21,fem_plain,mal_sws,3,sheep,frog,frog,frog,sheep,fem_plain_mal_sws,critical,3/9/2017,10:46,right,false,1959,4,1_2_2_1,word_1_word_2,near,sheep,Clear_Before,preschool,hanna,2012-03-07,,English,,,,4,3,female
J1smF,6,4,fem_plain,mal_sws,1,coat,strawberry,strawberry,coat,strawberry,fem_plain_mal_sws,critical,3/9/2017,10:46,left,true,2662,2,2_1_1_1,word_1_word_2,near,coat,Clear_Before,preschool,hanna,2012-03-07,,English,,,,4,3,female
J1smF,6,4,fem_plain,mal_sws,2,coat,strawberry,strawberry,coat,strawberry,fem_plain_mal_sws,critical,3/9/2017,10:46,right,true,1848,2,2_1_1_1,word_1_word_2,near,strawberry,Clear_Before,preschool,hanna,2012-03-07,,English,,,,4,3,female
J1smF,6,4,fem_plain,mal_sws,3,coat,strawberry,strawberry,coat,strawberry,fem_plain_mal_sws,critical,3/9/2017,10:46,left,false,5822,1,2_1_1_1,word_1_word_2,near,coat,Clear_Before,preschool,hanna,2012-03-07,,English,,,,4,3,female
J1smF,7,9,fem_plain,mal_sws,1,window,pizza,pizza,window,pizza,fem_plain_mal_sws,critical,3/9/2017,10:46,left,true,1942,2,1_2_2_1,word_2_word_1,near,window,Clear_Before,preschool,hanna,2012-03-07,,English,,,,4,3,female
J1smF,7,9,fem_plain,mal_sws,2,window,pizza,pizza,window,pizza,fem_plain_mal_sws,critical,3/9/2017,10:46,right,true,1867,2,1_2_2_1,word_2_word_1,near,pizza,Clear_Before,preschool,hanna,2012-03-07,,English,,,,4,3,female
J1smF,7,9,fem_plain,mal_sws,3,window,pizza,pizza,window,pizza,fem_plain_mal_sws,critical,3/9/2017,10:46,right,true,1915,2,1_2_2_1,word_2_word_1,near,pizza,Clear_Before,preschool,hanna,2012-03-07,,English,,,,4,3,female
J1smF,8,13,fem_plain,mal_sws,1,toothbrush,airplane,toothbrush,toothbrush,airplane,fem_plain_mal_sws,critical,3/9/2017,10:46,left,true,2281,2,1_2_1_1,word_1_word_2,far,toothbrush,Clear_Before,preschool,hanna,2012-03-07,,English,,,,4,3,female
J1smF,8,13,fem_plain,mal_sws,2,toothbrush,airplane,toothbrush,toothbrush,airplane,fem_plain_mal_sws,critical,3/9/2017,10:46,right,true,1222,3,1_2_1_1,word_1_word_2,far,airplane,Clear_Before,preschool,hanna,2012-03-07,,English,,,,4,3,female
J1smF,8,13,fem_plain,mal_sws,3,toothbrush,airplane,toothbrush,toothbrush,airplane,fem_plain_mal_sws,critical,3/9/2017,10:46,left,true,3035,2,1_2_1_1,word_1_word_2,far,toothbrush,Clear_Before,preschool,hanna,2012-03-07,,English,,,,4,3,female
J1smF,9,1,fem_plain,mal_sws,1,baby,spoon,spoon,spoon,baby,fem_plain_mal_sws,critical,3/9/2017,10:46,right,true,1903,2,1_2_2_1,word_1_word_2,near,baby,Clear_Before,preschool,hanna,2012-03-07,,English,,,,4,3,female
J1smF,9,1,fem_plain,mal_sws,2,baby,spoon,spoon,spoon,baby,fem_plain_mal_sws,critical,3/9/2017,10:46,left,true,1550,2,1_2_2_1,word_1_word_2,near,spoon,Clear_Before,preschool,hanna,2012-03-07,,English,,,,4,3,female
J1smF,9,1,fem_plain,mal_sws,3,baby,spoon,spoon,spoon,baby,fem_plain_mal_sws,critical,3/9/2017,10:46,left,true,2300,1,1_2_2_1,word_1_word_2,near,spoon,Clear_Before,preschool,hanna,2012-03-07,,English,,,,4,3,female
J1smF,10,19,fem_plain,mal_sws,1,santa,building_blocks,building_blocks,building_blocks,santa,fem_plain_mal_sws,critical,3/9/2017,10:46,right,true,3174,2,2_1_1_1,word_2_word_1,near,santa,Clear_Before,preschool,hanna,2012-03-07,,English,,,,4,3,female
J1smF,10,19,fem_plain,mal_sws,2,santa,building_blocks,building_blocks,building_blocks,santa,fem_plain_mal_sws,critical,3/9/2017,10:46,left,true,2229,2,2_1_1_1,word_2_word_1,near,building_blocks,Clear_Before,preschool,hanna,2012-03-07,,English,,,,4,3,female
J1smF,10,19,fem_plain,mal_sws,3,santa,building_blocks,building_blocks,building_blocks,santa,fem_plain_mal_sws,critical,3/9/2017,10:46,left,true,2214,2,2_1_1_1,word_2_word_1,near,building_blocks,Clear_Before,preschool,hanna,2012-03-07,,English,,,,4,3,female
J1smF,11,11,fem_plain,mal_sws,1,lorry,book,lorry,lorry,book,fem_plain_mal_sws,critical,3/9/2017,10:46,left,true,2322,2,2_1_2_1,word_2_word_1,far,lorry,Clear_Before,preschool,hanna,2012-03-07,,English,,,,4,3,female
J1smF,11,11,fem_plain,mal_sws,2,lorry,book,lorry,lorry,book,fem_plain_mal_sws,critical,3/9/2017,10:46,right,true,1923,2,2_1_2_1,word_2_word_1,far,book,Clear_Before,preschool,hanna,2012-03-07,,English,,,,4,3,female
J1smF,11,11,fem_plain,mal_sws,3,lorry,book,lorry,lorry,book,fem_plain_mal_sws,critical,3/9/2017,10:46,left,true,2321,2,2_1_2_1,word_2_word_1,far,lorry,Clear_Before,preschool,hanna,2012-03-07,,English,,,,4,3,female
J1smF,12,2,fem_plain,mal_sws,1,bed,chicken,bed,bed,chicken,fem_plain_mal_sws,critical,3/9/2017,10:46,left,true,3729,2,2_1_2_1,word_1_word_2,far,bed,Clear_Before,preschool,hanna,2012-03-07,,English,,,,4,3,female
J1smF,12,2,fem_plain,mal_sws,2,bed,chicken,bed,bed,chicken,fem_plain_mal_sws,critical,3/9/2017,10:46,right,true,3668,1,2_1_2_1,word_1_word_2,far,chicken,Clear_Before,preschool,hanna,2012-03-07,,English,,,,4,3,female
J1smF,12,2,fem_plain,mal_sws,3,bed,chicken,bed,bed,chicken,fem_plain_mal_sws,critical,3/9/2017,10:46,right,false,2740,2,2_1_2_1,word_1_word_2,far,chicken,Clear_Before,preschool,hanna,2012-03-07,,English,,,,4,3,female
J1smF,13,16,fem_plain,mal_sws,1,banana,paintbrush,banana,paintbrush,banana,fem_plain_mal_sws,critical,3/9/2017,10:46,right,true,1967,2,1_2_1_1,word_1_word_2,far,banana,Clear_Before,preschool,hanna,2012-03-07,,English,,,,4,3,female
J1smF,13,16,fem_plain,mal_sws,2,banana,paintbrush,banana,paintbrush,banana,fem_plain_mal_sws,critical,3/9/2017,10:46,left,true,2912,1,1_2_1_1,word_1_word_2,far,paintbrush,Clear_Before,preschool,hanna,2012-03-07,,English,,,,4,3,female
J1smF,13,16,fem_plain,mal_sws,3,banana,paintbrush,banana,paintbrush,banana,fem_plain_mal_sws,critical,3/9/2017,10:46,right,true,2864,1,1_2_1_1,word_1_word_2,far,banana,Clear_Before,preschool,hanna,2012-03-07,,English,,,,4,3,female
J1smF,14,10,fem_plain,mal_sws,1,tshirt,pig,tshirt,tshirt,pig,fem_plain_mal_sws,critical,3/9/2017,10:46,left,true,3340,2,1_2_1_1,word_2_word_1,far,tshirt,Clear_Before,preschool,hanna,2012-03-07,,English,,,,4,3,female
J1smF,14,10,fem_plain,mal_sws,2,tshirt,pig,tshirt,tshirt,pig,fem_plain_mal_sws,critical,3/9/2017,10:46,right,true,2101,1,1_2_1_1,word_2_word_1,far,pig,Clear_Before,preschool,hanna,2012-03-07,,English,,,,4,3,female
J1smF,14,10,fem_plain,mal_sws,3,tshirt,pig,tshirt,tshirt,pig,fem_plain_mal_sws,critical,3/9/2017,10:46,left,true,2855,1,1_2_1_1,word_2_word_1,far,tshirt,Clear_Before,preschool,hanna,2012-03-07,,English,,,,4,3,female
J1smF,15,12,fem_plain,mal_sws,1,foot,yoghurt,foot,yoghurt,foot,fem_plain_mal_sws,critical,3/9/2017,10:46,right,true,2051,2,1_2_1_1,word_2_word_1,far,foot,Clear_Before,preschool,hanna,2012-03-07,,English,,,,4,3,female
J1smF,15,12,fem_plain,mal_sws,2,foot,yoghurt,foot,yoghurt,foot,fem_plain_mal_sws,critical,3/9/2017,10:46,left,true,1870,2,1_2_1_1,word_2_word_1,far,yoghurt,Clear_Before,preschool,hanna,2012-03-07,,English,,,,4,3,female
J1smF,15,12,fem_plain,mal_sws,3,foot,yoghurt,foot,yoghurt,foot,fem_plain_mal_sws,critical,3/9/2017,10:46,right,true,2781,2,1_2_1_1,word_2_word_1,far,foot,Clear_Before,preschool,hanna,2012-03-07,,English,,,,4,3,female
J1smF,16,14,fem_plain,mal_sws,1,cheese,shoes,cheese,shoes,cheese,fem_plain_mal_sws,critical,3/9/2017,10:46,right,true,2368,2,2_1_2_1,word_2_word_1,far,cheese,Clear_Before,preschool,hanna,2012-03-07,,English,,,,4,3,female
J1smF,16,14,fem_plain,mal_sws,2,cheese,shoes,cheese,shoes,cheese,fem_plain_mal_sws,critical,3/9/2017,10:46,left,true,68,1,2_1_2_1,word_2_word_1,far,shoes,Clear_Before,preschool,hanna,2012-03-07,,English,,,,4,3,female
J1smF,16,14,fem_plain,mal_sws,3,cheese,shoes,cheese,shoes,cheese,fem_plain_mal_sws,critical,3/9/2017,10:46,right,true,1992,2,2_1_2_1,word_2_word_1,far,cheese,Clear_Before,preschool,hanna,2012-03-07,,English,,,,4,3,female
J1smF,17,20,fem_plain,mal_sws,1,rabbit,jumper,jumper,jumper,rabbit,fem_plain_mal_sws,critical,3/9/2017,10:46,right,true,2094,2,1_2_2_1,word_1_word_2,near,rabbit,Clear_Before,preschool,hanna,2012-03-07,,English,,,,4,3,female
J1smF,17,20,fem_plain,mal_sws,2,rabbit,jumper,jumper,jumper,rabbit,fem_plain_mal_sws,critical,3/9/2017,10:46,left,true,3126,2,1_2_2_1,word_1_word_2,near,jumper,Clear_Before,preschool,hanna,2012-03-07,,English,,,,4,3,female
J1smF,17,20,fem_plain,mal_sws,3,rabbit,jumper,jumper,jumper,rabbit,fem_plain_mal_sws,critical,3/9/2017,10:46,left,true,2176,2,1_2_2_1,word_1_word_2,near,jumper,Clear_Before,preschool,hanna,2012-03-07,,English,,,,4,3,female
J1smF,18,8,fem_plain,mal_sws,1,wellyboots,fire_engine,fire_engine,wellyboots,fire_engine,fem_plain_mal_sws,critical,3/9/2017,10:46,right,false,2780,2,2_1_1_1,word_1_word_2,near,fire_engine,Clear_Before,preschool,hanna,2012-03-07,,English,,,,4,3,female
J1smF,18,8,fem_plain,mal_sws,2,wellyboots,fire_engine,fire_engine,wellyboots,fire_engine,fem_plain_mal_sws,critical,3/9/2017,10:46,left,false,292,2,2_1_1_1,word_1_word_2,near,wellyboots,Clear_Before,preschool,hanna,2012-03-07,,English,,,,4,3,female
J1smF,18,8,fem_plain,mal_sws,3,wellyboots,fire_engine,fire_engine,wellyboots,fire_engine,fem_plain_mal_sws,critical,3/9/2017,10:46,right,true,3242,2,2_1_1_1,word_1_word_2,near,fire_engine,Clear_Before,preschool,hanna,2012-03-07,,English,,,,4,3,female
J1smF,19,3,fem_plain,mal_sws,1,trousers,nose,trousers,nose,trousers,fem_plain_mal_sws,critical,3/9/2017,10:46,right,true,2060,2,2_1_2_1,word_2_word_1,far,trousers,Clear_Before,preschool,hanna,2012-03-07,,English,,,,4,3,female
J1smF,19,3,fem_plain,mal_sws,2,trousers,nose,trousers,nose,trousers,fem_plain_mal_sws,critical,3/9/2017,10:46,right,false,2298,2,2_1_2_1,word_2_word_1,far,trousers,Clear_Before,preschool,hanna,2012-03-07,,English,,,,4,3,female
J1smF,19,3,fem_plain,mal_sws,3,trousers,nose,trousers,nose,trousers,fem_plain_mal_sws,critical,3/9/2017,10:46,left,false,1944,1,2_1_2_1,word_2_word_1,far,nose,Clear_Before,preschool,hanna,2012-03-07,,English,,,,4,3,female
J1smF,20,22,fem_plain,mal_sws,1,bike,dog,dog,bike,dog,fem_plain_mal_sws,critical,3/9/2017,10:46,right,false,2115,2,2_1_1_1,word_1_word_2,near,dog,Clear_Before,preschool,hanna,2012-03-07,,English,,,,4,3,female
J1smF,20,22,fem_plain,mal_sws,2,bike,dog,dog,bike,dog,fem_plain_mal_sws,critical,3/9/2017,10:46,left,false,2486,1,2_1_1_1,word_1_word_2,near,bike,Clear_Before,preschool,hanna,2012-03-07,,English,,,,4,3,female
J1smF,20,22,fem_plain,mal_sws,3,bike,dog,dog,bike,dog,fem_plain_mal_sws,critical,3/9/2017,10:46,right,true,2345,2,2_1_1_1,word_1_word_2,near,dog,Clear_Before,preschool,hanna,2012-03-07,,English,,,,4,3,female
J1smF,21,5,fem_plain,mal_sws,1,car,orange,orange,car,orange,fem_plain_mal_sws,critical,3/9/2017,10:46,right,false,2650,2,1_2_2_1,word_2_word_1,near,orange,Clear_Before,preschool,hanna,2012-03-07,,English,,,,4,3,female
J1smF,21,5,fem_plain,mal_sws,2,car,orange,orange,car,orange,fem_plain_mal_sws,critical,3/9/2017,10:46,left,false,1912,2,1_2_2_1,word_2_word_1,near,car,Clear_Before,preschool,hanna,2012-03-07,,English,,,,4,3,female
J1smF,21,5,fem_plain,mal_sws,3,car,orange,orange,car,orange,fem_plain_mal_sws,critical,3/9/2017,10:46,right,true,2606,1,1_2_2_1,word_2_word_1,near,orange,Clear_Before,preschool,hanna,2012-03-07,,English,,,,4,3,female
J1smF,22,18,fem_plain,mal_sws,1,ball,raspberry,ball,ball,raspberry,fem_plain_mal_sws,critical,3/9/2017,10:46,left,true,2958,2,1_2_1_1,word_1_word_2,far,ball,Clear_Before,preschool,hanna,2012-03-07,,English,,,,4,3,female
J1smF,22,18,fem_plain,mal_sws,2,ball,raspberry,ball,ball,raspberry,fem_plain_mal_sws,critical,3/9/2017,10:46,right,true,1867,1,1_2_1_1,word_1_word_2,far,raspberry,Clear_Before,preschool,hanna,2012-03-07,,English,,,,4,3,female
J1smF,22,18,fem_plain,mal_sws,3,ball,raspberry,ball,ball,raspberry,fem_plain_mal_sws,critical,3/9/2017,10:46,right,false,4853,2,1_2_1_1,word_1_word_2,far,raspberry,Clear_Before,preschool,hanna,2012-03-07,,English,,,,4,3,female
J1smF,23,7,fem_plain,mal_sws,1,horse,lolly,horse,lolly,horse,fem_plain_mal_sws,critical,3/9/2017,10:46,right,true,2355,2,1_2_1_1,word_1_word_2,far,horse,Clear_Before,preschool,hanna,2012-03-07,,English,,,,4,3,female
J1smF,23,7,fem_plain,mal_sws,2,horse,lolly,horse,lolly,horse,fem_plain_mal_sws,critical,3/9/2017,10:46,right,false,2201,2,1_2_1_1,word_1_word_2,far,horse,Clear_Before,preschool,hanna,2012-03-07,,English,,,,4,3,female
J1smF,23,7,fem_plain,mal_sws,3,horse,lolly,horse,lolly,horse,fem_plain_mal_sws,critical,3/9/2017,10:46,left,false,3778,1,1_2_1_1,word_1_word_2,far,lolly,Clear_Before,preschool,hanna,2012-03-07,,English,,,,4,3,female
J1smF,24,17,fem_plain,mal_sws,1,ambulance,cake,cake,cake,ambulance,fem_plain_mal_sws,critical,3/9/2017,10:46,left,false,1948,2,2_1_1_1,word_1_word_2,near,cake,Clear_Before,preschool,hanna,2012-03-07,,English,,,,4,3,female
J1smF,24,17,fem_plain,mal_sws,2,ambulance,cake,cake,cake,ambulance,fem_plain_mal_sws,critical,3/9/2017,10:46,right,false,1606,2,2_1_1_1,word_1_word_2,near,ambulance,Clear_Before,preschool,hanna,2012-03-07,,English,,,,4,3,female
J1smF,24,17,fem_plain,mal_sws,3,ambulance,cake,cake,cake,ambulance,fem_plain_mal_sws,critical,3/9/2017,10:46,left,true,3392,2,2_1_1_1,word_1_word_2,near,cake,Clear_Before,preschool,hanna,2012-03-07,,English,,,,4,3,female
J1smF,25,23,fem_plain,mal_sws,1,bath,teddy_bear,bath,teddy_bear,bath,fem_plain_mal_sws,critical,3/9/2017,10:46,right,true,2633,2,1_2_1_1,word_2_word_1,far,bath,Clear_Before,preschool,hanna,2012-03-07,,English,,,,4,3,female
J1smF,25,23,fem_plain,mal_sws,2,bath,teddy_bear,bath,teddy_bear,bath,fem_plain_mal_sws,critical,3/9/2017,10:46,right,false,2906,1,1_2_1_1,word_2_word_1,far,bath,Clear_Before,preschool,hanna,2012-03-07,,English,,,,4,3,female
J1smF,25,23,fem_plain,mal_sws,3,bath,teddy_bear,bath,teddy_bear,bath,fem_plain_mal_sws,critical,3/9/2017,10:46,left,false,2419,1,1_2_1_1,word_2_word_1,far,teddy_bear,Clear_Before,preschool,hanna,2012-03-07,,English,,,,4,3,female
