subject_id,trial_number,trial_id,plain,sws,instruction_number,sound1_item,sound2_item,sound3_item,left_image,right_image,sound_gender,trial_type,date_stamp,time_stamp,side_chosen,accuracy,rt,play_counter,order,pic_position,distance,chosen_pic,test_lang,testing_loc,tester,date_of_birth,ethnicity,native_lang,other_langs,parental_occ,dev_info,birth_order,num_siblings,gender
LfP2H,1,0,fem_plain,mal_sws,1,glasses,fireman,glasses,fireman,glasses,fem_plain_mal_sws,training,2/22/2017,10:37,right,true,2818,6,1_2_1_1,word_1_word_2,far,glasses,Clear_Before,museum,hanna,2012-03-22,,English,,,,1,1,female
LfP2H,1,0,fem_plain,mal_sws,2,glasses,fireman,glasses,fireman,glasses,fem_plain_mal_sws,training,2/22/2017,10:37,left,true,2464,4,1_2_1_1,word_1_word_2,far,fireman,Clear_Before,museum,hanna,2012-03-22,,English,,,,1,1,female
LfP2H,1,0,fem_plain,mal_sws,3,glasses,fireman,glasses,fireman,glasses,fem_plain_mal_sws,training,2/22/2017,10:37,right,true,2841,4,1_2_1_1,word_1_word_2,far,glasses,Clear_Before,museum,hanna,2012-03-22,,English,,,,1,1,female
LfP2H,2,7,fem_plain,mal_sws,1,horse,lolly,lolly,horse,lolly,fem_plain_mal_sws,critical,2/22/2017,10:37,left,true,2347,2,2_1_1_1,word_2_word_1,near,horse,Clear_Before,museum,hanna,2012-03-22,,English,,,,1,1,female
LfP2H,2,7,fem_plain,mal_sws,2,horse,lolly,lolly,horse,lolly,fem_plain_mal_sws,critical,2/22/2017,10:37,right,true,3797,2,2_1_1_1,word_2_word_1,near,lolly,Clear_Before,museum,hanna,2012-03-22,,English,,,,1,1,female
LfP2H,2,7,fem_plain,mal_sws,3,horse,lolly,lolly,horse,lolly,fem_plain_mal_sws,critical,2/22/2017,10:37,right,true,3258,2,2_1_1_1,word_2_word_1,near,lolly,Clear_Before,museum,hanna,2012-03-22,,English,,,,1,1,female
LfP2H,3,8,fem_plain,mal_sws,1,wellyboots,fire_engine,fire_engine,fire_engine,wellyboots,fem_plain_mal_sws,critical,2/22/2017,10:37,right,true,2728,2,1_2_2_1,word_2_word_1,near,wellyboots,Clear_Before,museum,hanna,2012-03-22,,English,,,,1,1,female
LfP2H,3,8,fem_plain,mal_sws,2,wellyboots,fire_engine,fire_engine,fire_engine,wellyboots,fem_plain_mal_sws,critical,2/22/2017,10:37,left,true,3887,1,1_2_2_1,word_2_word_1,near,fire_engine,Clear_Before,museum,hanna,2012-03-22,,English,,,,1,1,female
LfP2H,3,8,fem_plain,mal_sws,3,wellyboots,fire_engine,fire_engine,fire_engine,wellyboots,fem_plain_mal_sws,critical,2/22/2017,10:37,left,true,2857,2,1_2_2_1,word_2_word_1,near,fire_engine,Clear_Before,museum,hanna,2012-03-22,,English,,,,1,1,female
LfP2H,4,21,fem_plain,mal_sws,1,frog,sheep,sheep,frog,sheep,fem_plain_mal_sws,critical,2/22/2017,10:37,left,true,3056,2,2_1_1_1,word_1_word_2,near,frog,Clear_Before,museum,hanna,2012-03-22,,English,,,,1,1,female
LfP2H,4,21,fem_plain,mal_sws,2,frog,sheep,sheep,frog,sheep,fem_plain_mal_sws,critical,2/22/2017,10:37,right,true,2263,2,2_1_1_1,word_1_word_2,near,sheep,Clear_Before,museum,hanna,2012-03-22,,English,,,,1,1,female
LfP2H,4,21,fem_plain,mal_sws,3,frog,sheep,sheep,frog,sheep,fem_plain_mal_sws,critical,2/22/2017,10:37,right,true,2766,1,2_1_1_1,word_1_word_2,near,sheep,Clear_Before,museum,hanna,2012-03-22,,English,,,,1,1,female
LfP2H,5,13,fem_plain,mal_sws,1,airplane,toothbrush,airplane,toothbrush,airplane,fem_plain_mal_sws,critical,2/22/2017,10:37,right,true,2550,4,2_1_2_1,word_1_word_2,far,airplane,Clear_Before,museum,hanna,2012-03-22,,English,,,,1,1,female
LfP2H,5,13,fem_plain,mal_sws,2,airplane,toothbrush,airplane,toothbrush,airplane,fem_plain_mal_sws,critical,2/22/2017,10:37,left,true,2474,1,2_1_2_1,word_1_word_2,far,toothbrush,Clear_Before,museum,hanna,2012-03-22,,English,,,,1,1,female
LfP2H,5,13,fem_plain,mal_sws,3,airplane,toothbrush,airplane,toothbrush,airplane,fem_plain_mal_sws,critical,2/22/2017,10:37,right,true,2611,1,2_1_2_1,word_1_word_2,far,airplane,Clear_Before,museum,hanna,2012-03-22,,English,,,,1,1,female
LfP2H,6,24,fem_plain,mal_sws,1,sink,fish,fish,sink,fish,fem_plain_mal_sws,critical,2/22/2017,10:37,left,true,2641,2,1_2_2_1,word_1_word_2,near,sink,Clear_Before,museum,hanna,2012-03-22,,English,,,,1,1,female
LfP2H,6,24,fem_plain,mal_sws,2,sink,fish,fish,sink,fish,fem_plain_mal_sws,critical,2/22/2017,10:37,right,true,2217,1,1_2_2_1,word_1_word_2,near,fish,Clear_Before,museum,hanna,2012-03-22,,English,,,,1,1,female
LfP2H,6,24,fem_plain,mal_sws,3,sink,fish,fish,sink,fish,fem_plain_mal_sws,critical,2/22/2017,10:37,right,true,2334,1,1_2_2_1,word_1_word_2,near,fish,Clear_Before,museum,hanna,2012-03-22,,English,,,,1,1,female
LfP2H,7,5,fem_plain,mal_sws,1,car,orange,car,orange,car,fem_plain_mal_sws,critical,2/22/2017,10:37,right,true,2325,2,1_2_1_1,word_1_word_2,far,car,Clear_Before,museum,hanna,2012-03-22,,English,,,,1,1,female
LfP2H,7,5,fem_plain,mal_sws,2,car,orange,car,orange,car,fem_plain_mal_sws,critical,2/22/2017,10:37,left,true,3128,1,1_2_1_1,word_1_word_2,far,orange,Clear_Before,museum,hanna,2012-03-22,,English,,,,1,1,female
LfP2H,7,5,fem_plain,mal_sws,3,car,orange,car,orange,car,fem_plain_mal_sws,critical,2/22/2017,10:37,right,true,2469,2,1_2_1_1,word_1_word_2,far,car,Clear_Before,museum,hanna,2012-03-22,,English,,,,1,1,female
LfP2H,8,2,fem_plain,mal_sws,1,chicken,bed,chicken,bed,chicken,fem_plain_mal_sws,critical,2/22/2017,10:37,right,true,3867,2,2_1_2_1,word_1_word_2,far,chicken,Clear_Before,museum,hanna,2012-03-22,,English,,,,1,1,female
LfP2H,8,2,fem_plain,mal_sws,2,chicken,bed,chicken,bed,chicken,fem_plain_mal_sws,critical,2/22/2017,10:37,left,true,2694,1,2_1_2_1,word_1_word_2,far,bed,Clear_Before,museum,hanna,2012-03-22,,English,,,,1,1,female
LfP2H,8,2,fem_plain,mal_sws,3,chicken,bed,chicken,bed,chicken,fem_plain_mal_sws,critical,2/22/2017,10:37,right,true,3427,2,2_1_2_1,word_1_word_2,far,chicken,Clear_Before,museum,hanna,2012-03-22,,English,,,,1,1,female
LfP2H,9,17,fem_plain,mal_sws,1,ambulance,cake,ambulance,cake,ambulance,fem_plain_mal_sws,critical,2/22/2017,10:37,right,true,2960,2,1_2_1_1,word_1_word_2,far,ambulance,Clear_Before,museum,hanna,2012-03-22,,English,,,,1,1,female
LfP2H,9,17,fem_plain,mal_sws,2,ambulance,cake,ambulance,cake,ambulance,fem_plain_mal_sws,critical,2/22/2017,10:37,left,true,2803,1,1_2_1_1,word_1_word_2,far,cake,Clear_Before,museum,hanna,2012-03-22,,English,,,,1,1,female
LfP2H,9,17,fem_plain,mal_sws,3,ambulance,cake,ambulance,cake,ambulance,fem_plain_mal_sws,critical,2/22/2017,10:37,left,false,3386,3,1_2_1_1,word_1_word_2,far,cake,Clear_Before,museum,hanna,2012-03-22,,English,,,,1,1,female
LfP2H,10,9,fem_plain,mal_sws,1,window,pizza,window,window,pizza,fem_plain_mal_sws,critical,2/22/2017,10:37,left,true,2188,2,1_2_1_1,word_2_word_1,far,window,Clear_Before,museum,hanna,2012-03-22,,English,,,,1,1,female
LfP2H,10,9,fem_plain,mal_sws,2,window,pizza,window,window,pizza,fem_plain_mal_sws,critical,2/22/2017,10:37,right,true,2208,1,1_2_1_1,word_2_word_1,far,pizza,Clear_Before,museum,hanna,2012-03-22,,English,,,,1,1,female
LfP2H,10,9,fem_plain,mal_sws,3,window,pizza,window,window,pizza,fem_plain_mal_sws,critical,2/22/2017,10:37,left,true,2630,2,1_2_1_1,word_2_word_1,far,window,Clear_Before,museum,hanna,2012-03-22,,English,,,,1,1,female
LfP2H,11,18,fem_plain,mal_sws,1,ball,raspberry,raspberry,raspberry,ball,fem_plain_mal_sws,critical,2/22/2017,10:37,right,true,2732,2,2_1_1_1,word_2_word_1,near,ball,Clear_Before,museum,hanna,2012-03-22,,English,,,,1,1,female
LfP2H,11,18,fem_plain,mal_sws,2,ball,raspberry,raspberry,raspberry,ball,fem_plain_mal_sws,critical,2/22/2017,10:37,left,true,2166,2,2_1_1_1,word_2_word_1,near,raspberry,Clear_Before,museum,hanna,2012-03-22,,English,,,,1,1,female
LfP2H,11,18,fem_plain,mal_sws,3,ball,raspberry,raspberry,raspberry,ball,fem_plain_mal_sws,critical,2/22/2017,10:37,left,true,3124,1,2_1_1_1,word_2_word_1,near,raspberry,Clear_Before,museum,hanna,2012-03-22,,English,,,,1,1,female
LfP2H,12,11,fem_plain,mal_sws,1,lorry,book,lorry,lorry,book,fem_plain_mal_sws,critical,2/22/2017,10:37,left,true,2711,2,2_1_2_1,word_2_word_1,far,lorry,Clear_Before,museum,hanna,2012-03-22,,English,,,,1,1,female
LfP2H,12,11,fem_plain,mal_sws,2,lorry,book,lorry,lorry,book,fem_plain_mal_sws,critical,2/22/2017,10:37,right,true,2088,2,2_1_2_1,word_2_word_1,far,book,Clear_Before,museum,hanna,2012-03-22,,English,,,,1,1,female
LfP2H,12,11,fem_plain,mal_sws,3,lorry,book,lorry,lorry,book,fem_plain_mal_sws,critical,2/22/2017,10:37,left,true,2468,2,2_1_2_1,word_2_word_1,far,lorry,Clear_Before,museum,hanna,2012-03-22,,English,,,,1,1,female
LfP2H,13,4,fem_plain,mal_sws,1,coat,strawberry,coat,strawberry,coat,fem_plain_mal_sws,critical,2/22/2017,10:37,right,true,2165,2,2_1_2_1,word_2_word_1,far,coat,Clear_Before,museum,hanna,2012-03-22,,English,,,,1,1,female
LfP2H,13,4,fem_plain,mal_sws,2,coat,strawberry,coat,strawberry,coat,fem_plain_mal_sws,critical,2/22/2017,10:37,left,true,2398,2,2_1_2_1,word_2_word_1,far,strawberry,Clear_Before,museum,hanna,2012-03-22,,English,,,,1,1,female
LfP2H,13,4,fem_plain,mal_sws,3,coat,strawberry,coat,strawberry,coat,fem_plain_mal_sws,critical,2/22/2017,10:37,right,true,2667,1,2_1_2_1,word_2_word_1,far,coat,Clear_Before,museum,hanna,2012-03-22,,English,,,,1,1,female
LfP2H,14,14,fem_plain,mal_sws,1,cheese,shoes,shoes,shoes,cheese,fem_plain_mal_sws,critical,2/22/2017,10:37,right,true,2283,4,2_1_1_1,word_2_word_1,near,cheese,Clear_Before,museum,hanna,2012-03-22,,English,,,,1,1,female
LfP2H,14,14,fem_plain,mal_sws,2,cheese,shoes,shoes,shoes,cheese,fem_plain_mal_sws,critical,2/22/2017,10:37,left,true,2055,1,2_1_1_1,word_2_word_1,near,shoes,Clear_Before,museum,hanna,2012-03-22,,English,,,,1,1,female
LfP2H,14,14,fem_plain,mal_sws,3,cheese,shoes,shoes,shoes,cheese,fem_plain_mal_sws,critical,2/22/2017,10:37,left,true,2118,1,2_1_1_1,word_2_word_1,near,shoes,Clear_Before,museum,hanna,2012-03-22,,English,,,,1,1,female
LfP2H,15,10,fem_plain,mal_sws,1,pig,tshirt,tshirt,pig,tshirt,fem_plain_mal_sws,critical,2/22/2017,10:37,left,true,1903,2,1_2_2_1,word_1_word_2,near,pig,Clear_Before,museum,hanna,2012-03-22,,English,,,,1,1,female
LfP2H,15,10,fem_plain,mal_sws,2,pig,tshirt,tshirt,pig,tshirt,fem_plain_mal_sws,critical,2/22/2017,10:37,right,true,2882,1,1_2_2_1,word_1_word_2,near,tshirt,Clear_Before,museum,hanna,2012-03-22,,English,,,,1,1,female
LfP2H,15,10,fem_plain,mal_sws,3,pig,tshirt,tshirt,pig,tshirt,fem_plain_mal_sws,critical,2/22/2017,10:37,right,true,3656,2,1_2_2_1,word_1_word_2,near,tshirt,Clear_Before,museum,hanna,2012-03-22,,English,,,,1,1,female
LfP2H,16,6,fem_plain,mal_sws,1,bird,peas,bird,peas,bird,fem_plain_mal_sws,critical,2/22/2017,10:37,right,true,2042,2,1_2_1_1,word_2_word_1,far,bird,Clear_Before,museum,hanna,2012-03-22,,English,,,,1,1,female
LfP2H,16,6,fem_plain,mal_sws,2,bird,peas,bird,peas,bird,fem_plain_mal_sws,critical,2/22/2017,10:37,left,true,2168,1,1_2_1_1,word_2_word_1,far,peas,Clear_Before,museum,hanna,2012-03-22,,English,,,,1,1,female
LfP2H,16,6,fem_plain,mal_sws,3,bird,peas,bird,peas,bird,fem_plain_mal_sws,critical,2/22/2017,10:37,right,true,2061,2,1_2_1_1,word_2_word_1,far,bird,Clear_Before,museum,hanna,2012-03-22,,English,,,,1,1,female
LfP2H,17,12,fem_plain,mal_sws,1,foot,yoghurt,foot,yoghurt,foot,fem_plain_mal_sws,critical,2/22/2017,10:37,right,true,2252,2,2_1_2_1,word_2_word_1,far,foot,Clear_Before,museum,hanna,2012-03-22,,English,,,,1,1,female
LfP2H,17,12,fem_plain,mal_sws,2,foot,yoghurt,foot,yoghurt,foot,fem_plain_mal_sws,critical,2/22/2017,10:37,left,true,2015,2,2_1_2_1,word_2_word_1,far,yoghurt,Clear_Before,museum,hanna,2012-03-22,,English,,,,1,1,female
LfP2H,17,12,fem_plain,mal_sws,3,foot,yoghurt,foot,yoghurt,foot,fem_plain_mal_sws,critical,2/22/2017,10:37,right,true,2235,2,2_1_2_1,word_2_word_1,far,foot,Clear_Before,museum,hanna,2012-03-22,,English,,,,1,1,female
LfP2H,18,22,fem_plain,mal_sws,1,dog,bike,bike,bike,dog,fem_plain_mal_sws,critical,2/22/2017,10:37,right,true,4100,2,2_1_1_1,word_1_word_2,near,dog,Clear_Before,museum,hanna,2012-03-22,,English,,,,1,1,female
LfP2H,18,22,fem_plain,mal_sws,2,dog,bike,bike,bike,dog,fem_plain_mal_sws,critical,2/22/2017,10:37,right,false,2500,2,2_1_1_1,word_1_word_2,near,dog,Clear_Before,museum,hanna,2012-03-22,,English,,,,1,1,female
LfP2H,18,22,fem_plain,mal_sws,3,dog,bike,bike,bike,dog,fem_plain_mal_sws,critical,2/22/2017,10:37,left,true,2511,1,2_1_1_1,word_1_word_2,near,bike,Clear_Before,museum,hanna,2012-03-22,,English,,,,1,1,female
LfP2H,19,23,fem_plain,mal_sws,1,bath,teddy_bear,teddy_bear,bath,teddy_bear,fem_plain_mal_sws,critical,2/22/2017,10:37,right,false,3369,2,1_2_2_1,word_1_word_2,near,teddy_bear,Clear_Before,museum,hanna,2012-03-22,,English,,,,1,1,female
LfP2H,19,23,fem_plain,mal_sws,2,bath,teddy_bear,teddy_bear,bath,teddy_bear,fem_plain_mal_sws,critical,2/22/2017,10:37,left,false,2317,2,1_2_2_1,word_1_word_2,near,bath,Clear_Before,museum,hanna,2012-03-22,,English,,,,1,1,female
LfP2H,19,23,fem_plain,mal_sws,3,bath,teddy_bear,teddy_bear,bath,teddy_bear,fem_plain_mal_sws,critical,2/22/2017,10:37,right,true,3361,1,1_2_2_1,word_1_word_2,near,teddy_bear,Clear_Before,museum,hanna,2012-03-22,,English,,,,1,1,female
LfP2H,20,19,fem_plain,mal_sws,1,building_blocks,santa,building_blocks,santa,building_blocks,fem_plain_mal_sws,critical,2/22/2017,10:37,right,true,2974,2,1_2_1_1,word_1_word_2,far,building_blocks,Clear_Before,museum,hanna,2012-03-22,,English,,,,1,1,female
LfP2H,20,19,fem_plain,mal_sws,2,building_blocks,santa,building_blocks,santa,building_blocks,fem_plain_mal_sws,critical,2/22/2017,10:37,right,false,4649,2,1_2_1_1,word_1_word_2,far,building_blocks,Clear_Before,museum,hanna,2012-03-22,,English,,,,1,1,female
LfP2H,20,19,fem_plain,mal_sws,3,building_blocks,santa,building_blocks,santa,building_blocks,fem_plain_mal_sws,critical,2/22/2017,10:37,left,false,4150,2,1_2_1_1,word_1_word_2,far,santa,Clear_Before,museum,hanna,2012-03-22,,English,,,,1,1,female
LfP2H,21,3,fem_plain,mal_sws,1,nose,trousers,trousers,nose,trousers,fem_plain_mal_sws,critical,2/22/2017,10:37,right,false,4087,2,1_2_2_1,word_2_word_1,near,trousers,Clear_Before,museum,hanna,2012-03-22,,English,,,,1,1,female
LfP2H,21,3,fem_plain,mal_sws,2,nose,trousers,trousers,nose,trousers,fem_plain_mal_sws,critical,2/22/2017,10:37,left,false,1976,1,1_2_2_1,word_2_word_1,near,nose,Clear_Before,museum,hanna,2012-03-22,,English,,,,1,1,female
LfP2H,21,3,fem_plain,mal_sws,3,nose,trousers,trousers,nose,trousers,fem_plain_mal_sws,critical,2/22/2017,10:37,right,true,2158,1,1_2_2_1,word_2_word_1,near,trousers,Clear_Before,museum,hanna,2012-03-22,,English,,,,1,1,female
LfP2H,22,1,fem_plain,mal_sws,1,spoon,baby,spoon,baby,spoon,fem_plain_mal_sws,critical,2/22/2017,10:37,left,false,3145,2,2_1_2_1,word_2_word_1,far,baby,Clear_Before,museum,hanna,2012-03-22,,English,,,,1,1,female
LfP2H,22,1,fem_plain,mal_sws,2,spoon,baby,spoon,baby,spoon,fem_plain_mal_sws,critical,2/22/2017,10:37,right,false,1791,4,2_1_2_1,word_2_word_1,far,spoon,Clear_Before,museum,hanna,2012-03-22,,English,,,,1,1,female
LfP2H,22,1,fem_plain,mal_sws,3,spoon,baby,spoon,baby,spoon,fem_plain_mal_sws,critical,2/22/2017,10:37,left,false,2171,2,2_1_2_1,word_2_word_1,far,baby,Clear_Before,museum,hanna,2012-03-22,,English,,,,1,1,female
LfP2H,23,16,fem_plain,mal_sws,1,paintbrush,banana,banana,paintbrush,banana,fem_plain_mal_sws,critical,2/22/2017,10:37,left,true,3899,2,2_1_1_1,word_1_word_2,near,paintbrush,Clear_Before,museum,hanna,2012-03-22,,English,,,,1,1,female
LfP2H,23,16,fem_plain,mal_sws,2,paintbrush,banana,banana,paintbrush,banana,fem_plain_mal_sws,critical,2/22/2017,10:37,left,false,3049,2,2_1_1_1,word_1_word_2,near,paintbrush,Clear_Before,museum,hanna,2012-03-22,,English,,,,1,1,female
LfP2H,23,16,fem_plain,mal_sws,3,paintbrush,banana,banana,paintbrush,banana,fem_plain_mal_sws,critical,2/22/2017,10:37,right,true,2208,2,2_1_1_1,word_1_word_2,near,banana,Clear_Before,museum,hanna,2012-03-22,,English,,,,1,1,female
LfP2H,24,15,fem_plain,mal_sws,1,slide,pencil,pencil,pencil,slide,fem_plain_mal_sws,critical,2/22/2017,10:37,left,false,2405,2,1_2_2_1,word_2_word_1,near,pencil,Clear_Before,museum,hanna,2012-03-22,,English,,,,1,1,female
LfP2H,24,15,fem_plain,mal_sws,2,slide,pencil,pencil,pencil,slide,fem_plain_mal_sws,critical,2/22/2017,10:37,right,false,2262,2,1_2_2_1,word_2_word_1,near,slide,Clear_Before,museum,hanna,2012-03-22,,English,,,,1,1,female
LfP2H,24,15,fem_plain,mal_sws,3,slide,pencil,pencil,pencil,slide,fem_plain_mal_sws,critical,2/22/2017,10:37,left,true,2171,2,1_2_2_1,word_2_word_1,near,pencil,Clear_Before,museum,hanna,2012-03-22,,English,,,,1,1,female
LfP2H,25,20,fem_plain,mal_sws,1,jumper,rabbit,jumper,jumper,rabbit,fem_plain_mal_sws,critical,2/22/2017,10:37,left,true,2247,1,1_2_1_1,word_1_word_2,far,jumper,Clear_Before,museum,hanna,2012-03-22,,English,,,,1,1,female
LfP2H,25,20,fem_plain,mal_sws,2,jumper,rabbit,jumper,jumper,rabbit,fem_plain_mal_sws,critical,2/22/2017,10:37,left,false,1949,2,1_2_1_1,word_1_word_2,far,jumper,Clear_Before,museum,hanna,2012-03-22,,English,,,,1,1,female
LfP2H,25,20,fem_plain,mal_sws,3,jumper,rabbit,jumper,jumper,rabbit,fem_plain_mal_sws,critical,2/22/2017,10:37,right,false,2105,2,1_2_1_1,word_1_word_2,far,rabbit,Clear_Before,museum,hanna,2012-03-22,,English,,,,1,1,female
