subject_id,trial_number,trial_id,plain,sws,instruction_number,sound1_item,sound2_item,sound3_item,left_image,right_image,sound_gender,trial_type,date_stamp,time_stamp,side_chosen,accuracy,rt,play_counter,order,pic_position,distance,chosen_pic,test_lang,testing_loc,tester,date_of_birth,ethnicity,native_lang,other_langs,parental_occ,dev_info,birth_order,num_siblings,gender
LupXa,1,0,fem_plain,mal_sws,1,glasses,fireman,glasses,glasses,fireman,fem_plain_mal_sws,training,3/30/2017,9:43,left,true,8774,4,1_2_1_1,word_2_word_1,far,glasses,Clear_After,preschool,hanna,2015-02-03,,English,,,,,,female
LupXa,1,0,fem_plain,mal_sws,2,glasses,fireman,glasses,glasses,fireman,fem_plain_mal_sws,training,3/30/2017,9:43,left,false,3312,4,1_2_1_1,word_2_word_1,far,glasses,Clear_After,preschool,hanna,2015-02-03,,English,,,,,,female
LupXa,1,0,fem_plain,mal_sws,3,glasses,fireman,glasses,glasses,fireman,fem_plain_mal_sws,training,3/30/2017,9:43,right,false,2834,4,1_2_1_1,word_2_word_1,far,fireman,Clear_After,preschool,hanna,2015-02-03,,English,,,,,,female
LupXa,2,16,fem_plain,mal_sws,1,paintbrush,banana,banana,banana,paintbrush,fem_plain_mal_sws,critical,3/30/2017,9:43,right,true,2676,2,2_1_1_1,word_2_word_1,near,paintbrush,Clear_After,preschool,hanna,2015-02-03,,English,,,,,,female
LupXa,2,16,fem_plain,mal_sws,2,paintbrush,banana,banana,banana,paintbrush,fem_plain_mal_sws,critical,3/30/2017,9:43,right,false,3524,2,2_1_1_1,word_2_word_1,near,paintbrush,Clear_After,preschool,hanna,2015-02-03,,English,,,,,,female
LupXa,2,16,fem_plain,mal_sws,3,paintbrush,banana,banana,banana,paintbrush,fem_plain_mal_sws,critical,3/30/2017,9:43,left,true,2764,4,2_1_1_1,word_2_word_1,near,banana,Clear_After,preschool,hanna,2015-02-03,,English,,,,,,female
LupXa,3,2,fem_plain,mal_sws,1,chicken,bed,bed,bed,chicken,fem_plain_mal_sws,critical,3/30/2017,9:43,right,true,3155,2,1_2_2_1,word_1_word_2,near,chicken,Clear_After,preschool,hanna,2015-02-03,,English,,,,,,female
LupXa,3,2,fem_plain,mal_sws,2,chicken,bed,bed,bed,chicken,fem_plain_mal_sws,critical,3/30/2017,9:43,right,false,3149,2,1_2_2_1,word_1_word_2,near,chicken,Clear_After,preschool,hanna,2015-02-03,,English,,,,,,female
LupXa,3,2,fem_plain,mal_sws,3,chicken,bed,bed,bed,chicken,fem_plain_mal_sws,critical,3/30/2017,9:43,right,false,2394,2,1_2_2_1,word_1_word_2,near,chicken,Clear_After,preschool,hanna,2015-02-03,,English,,,,,,female
LupXa,4,7,fem_plain,mal_sws,1,horse,lolly,horse,lolly,horse,fem_plain_mal_sws,critical,3/30/2017,9:43,right,true,3355,2,1_2_1_1,word_1_word_2,far,horse,Clear_After,preschool,hanna,2015-02-03,,English,,,,,,female
LupXa,4,7,fem_plain,mal_sws,2,horse,lolly,horse,lolly,horse,fem_plain_mal_sws,critical,3/30/2017,9:43,right,false,1480,2,1_2_1_1,word_1_word_2,far,horse,Clear_After,preschool,hanna,2015-02-03,,English,,,,,,female
LupXa,4,7,fem_plain,mal_sws,3,horse,lolly,horse,lolly,horse,fem_plain_mal_sws,critical,3/30/2017,9:43,right,true,1283,2,1_2_1_1,word_1_word_2,far,horse,Clear_After,preschool,hanna,2015-02-03,,English,,,,,,female
LupXa,5,1,fem_plain,mal_sws,1,spoon,baby,spoon,baby,spoon,fem_plain_mal_sws,critical,3/30/2017,9:43,right,true,3179,2,1_2_1_1,word_2_word_1,far,spoon,Clear_After,preschool,hanna,2015-02-03,,English,,,,,,female
LupXa,5,1,fem_plain,mal_sws,2,spoon,baby,spoon,baby,spoon,fem_plain_mal_sws,critical,3/30/2017,9:43,right,false,2528,2,1_2_1_1,word_2_word_1,far,spoon,Clear_After,preschool,hanna,2015-02-03,,English,,,,,,female
LupXa,5,1,fem_plain,mal_sws,3,spoon,baby,spoon,baby,spoon,fem_plain_mal_sws,critical,3/30/2017,9:43,left,false,3798,4,1_2_1_1,word_2_word_1,far,baby,Clear_After,preschool,hanna,2015-02-03,,English,,,,,,female
LupXa,6,5,fem_plain,mal_sws,1,orange,car,orange,orange,car,fem_plain_mal_sws,critical,3/30/2017,9:43,right,false,3859,2,2_1_2_1,word_1_word_2,far,car,Clear_After,preschool,hanna,2015-02-03,,English,,,,,,female
LupXa,6,5,fem_plain,mal_sws,2,orange,car,orange,orange,car,fem_plain_mal_sws,critical,3/30/2017,9:43,left,false,3462,2,2_1_2_1,word_1_word_2,far,orange,Clear_After,preschool,hanna,2015-02-03,,English,,,,,,female
LupXa,6,5,fem_plain,mal_sws,3,orange,car,orange,orange,car,fem_plain_mal_sws,critical,3/30/2017,9:43,right,false,2373,1,2_1_2_1,word_1_word_2,far,car,Clear_After,preschool,hanna,2015-02-03,,English,,,,,,female
LupXa,7,12,fem_plain,mal_sws,1,foot,yoghurt,yoghurt,yoghurt,foot,fem_plain_mal_sws,critical,3/30/2017,9:43,right,true,5947,4,2_1_1_1,word_2_word_1,near,foot,Clear_After,preschool,hanna,2015-02-03,,English,,,,,,female
LupXa,7,12,fem_plain,mal_sws,2,foot,yoghurt,yoghurt,yoghurt,foot,fem_plain_mal_sws,critical,3/30/2017,9:43,right,false,1971,2,2_1_1_1,word_2_word_1,near,foot,Clear_After,preschool,hanna,2015-02-03,,English,,,,,,female
LupXa,7,12,fem_plain,mal_sws,3,foot,yoghurt,yoghurt,yoghurt,foot,fem_plain_mal_sws,critical,3/30/2017,9:43,right,false,3932,2,2_1_1_1,word_2_word_1,near,foot,Clear_After,preschool,hanna,2015-02-03,,English,,,,,,female
LupXa,8,21,fem_plain,mal_sws,1,frog,sheep,sheep,frog,sheep,fem_plain_mal_sws,critical,3/30/2017,9:43,right,false,4092,2,2_1_1_1,word_1_word_2,near,sheep,Clear_After,preschool,hanna,2015-02-03,,English,,,,,,female
LupXa,8,21,fem_plain,mal_sws,2,frog,sheep,sheep,frog,sheep,fem_plain_mal_sws,critical,3/30/2017,9:43,left,false,4109,2,2_1_1_1,word_1_word_2,near,frog,Clear_After,preschool,hanna,2015-02-03,,English,,,,,,female
LupXa,8,21,fem_plain,mal_sws,3,frog,sheep,sheep,frog,sheep,fem_plain_mal_sws,critical,3/30/2017,9:43,right,true,2938,1,2_1_1_1,word_1_word_2,near,sheep,Clear_After,preschool,hanna,2015-02-03,,English,,,,,,female
LupXa,9,22,fem_plain,mal_sws,1,bike,dog,bike,dog,bike,fem_plain_mal_sws,critical,3/30/2017,9:43,right,true,12412,4,1_2_1_1,word_2_word_1,far,bike,Clear_After,preschool,hanna,2015-02-03,,English,,,,,,female
LupXa,9,22,fem_plain,mal_sws,2,bike,dog,bike,dog,bike,fem_plain_mal_sws,critical,3/30/2017,9:43,right,false,2772,2,1_2_1_1,word_2_word_1,far,bike,Clear_After,preschool,hanna,2015-02-03,,English,,,,,,female
LupXa,9,22,fem_plain,mal_sws,3,bike,dog,bike,dog,bike,fem_plain_mal_sws,critical,3/30/2017,9:43,left,false,2637,1,1_2_1_1,word_2_word_1,far,dog,Clear_After,preschool,hanna,2015-02-03,,English,,,,,,female
LupXa,10,10,fem_plain,mal_sws,1,pig,tshirt,tshirt,tshirt,pig,fem_plain_mal_sws,critical,3/30/2017,9:43,right,true,2077,2,2_1_1_1,word_2_word_1,near,pig,Clear_After,preschool,hanna,2015-02-03,,English,,,,,,female
LupXa,10,10,fem_plain,mal_sws,2,pig,tshirt,tshirt,tshirt,pig,fem_plain_mal_sws,critical,3/30/2017,9:43,right,false,2689,2,2_1_1_1,word_2_word_1,near,pig,Clear_After,preschool,hanna,2015-02-03,,English,,,,,,female
LupXa,10,10,fem_plain,mal_sws,3,pig,tshirt,tshirt,tshirt,pig,fem_plain_mal_sws,critical,3/30/2017,9:43,left,true,3574,1,2_1_1_1,word_2_word_1,near,tshirt,Clear_After,preschool,hanna,2015-02-03,,English,,,,,,female
LupXa,11,17,fem_plain,mal_sws,1,cake,ambulance,cake,cake,ambulance,fem_plain_mal_sws,critical,3/30/2017,9:43,left,true,3589,2,2_1_2_1,word_1_word_2,far,cake,Clear_After,preschool,hanna,2015-02-03,,English,,,,,,female
LupXa,11,17,fem_plain,mal_sws,2,cake,ambulance,cake,cake,ambulance,fem_plain_mal_sws,critical,3/30/2017,9:43,left,false,4968,2,2_1_2_1,word_1_word_2,far,cake,Clear_After,preschool,hanna,2015-02-03,,English,,,,,,female
LupXa,11,17,fem_plain,mal_sws,3,cake,ambulance,cake,cake,ambulance,fem_plain_mal_sws,critical,3/30/2017,9:43,right,false,2622,1,2_1_2_1,word_1_word_2,far,ambulance,Clear_After,preschool,hanna,2015-02-03,,English,,,,,,female
LupXa,12,6,fem_plain,mal_sws,1,bird,peas,peas,peas,bird,fem_plain_mal_sws,critical,3/30/2017,9:43,right,true,2909,2,1_2_2_1,word_2_word_1,near,bird,Clear_After,preschool,hanna,2015-02-03,,English,,,,,,female
LupXa,12,6,fem_plain,mal_sws,2,bird,peas,peas,peas,bird,fem_plain_mal_sws,critical,3/30/2017,9:43,right,false,2526,1,1_2_2_1,word_2_word_1,near,bird,Clear_After,preschool,hanna,2015-02-03,,English,,,,,,female
LupXa,12,6,fem_plain,mal_sws,3,bird,peas,peas,peas,bird,fem_plain_mal_sws,critical,3/30/2017,9:43,left,true,2640,1,1_2_2_1,word_2_word_1,near,peas,Clear_After,preschool,hanna,2015-02-03,,English,,,,,,female
LupXa,13,20,fem_plain,mal_sws,1,rabbit,jumper,jumper,rabbit,jumper,fem_plain_mal_sws,critical,3/30/2017,9:43,left,true,3708,2,1_2_2_1,word_2_word_1,near,rabbit,Clear_After,preschool,hanna,2015-02-03,,English,,,,,,female
LupXa,13,20,fem_plain,mal_sws,2,rabbit,jumper,jumper,rabbit,jumper,fem_plain_mal_sws,critical,3/30/2017,9:43,left,false,4058,2,1_2_2_1,word_2_word_1,near,rabbit,Clear_After,preschool,hanna,2015-02-03,,English,,,,,,female
LupXa,13,20,fem_plain,mal_sws,3,rabbit,jumper,jumper,rabbit,jumper,fem_plain_mal_sws,critical,3/30/2017,9:43,right,true,2408,2,1_2_2_1,word_2_word_1,near,jumper,Clear_After,preschool,hanna,2015-02-03,,English,,,,,,female
LupXa,14,3,fem_plain,mal_sws,1,trousers,nose,trousers,nose,trousers,fem_plain_mal_sws,critical,3/30/2017,9:43,right,true,19309,2,2_1_2_1,word_2_word_1,far,trousers,Clear_After,preschool,hanna,2015-02-03,,English,,,,,,female
LupXa,14,3,fem_plain,mal_sws,2,trousers,nose,trousers,nose,trousers,fem_plain_mal_sws,critical,3/30/2017,9:43,right,false,7332,2,2_1_2_1,word_2_word_1,far,trousers,Clear_After,preschool,hanna,2015-02-03,,English,,,,,,female
LupXa,14,3,fem_plain,mal_sws,3,trousers,nose,trousers,nose,trousers,fem_plain_mal_sws,critical,3/30/2017,9:43,left,false,4244,1,2_1_2_1,word_2_word_1,far,nose,Clear_After,preschool,hanna,2015-02-03,,English,,,,,,female
LupXa,15,19,fem_plain,mal_sws,1,building_blocks,santa,santa,building_blocks,santa,fem_plain_mal_sws,critical,3/30/2017,9:43,right,false,3562,2,2_1_1_1,word_2_word_1,near,santa,Clear_After,preschool,hanna,2015-02-03,,English,,,,,,female
LupXa,15,19,fem_plain,mal_sws,2,building_blocks,santa,santa,building_blocks,santa,fem_plain_mal_sws,critical,3/30/2017,9:43,left,false,2526,2,2_1_1_1,word_2_word_1,near,building_blocks,Clear_After,preschool,hanna,2015-02-03,,English,,,,,,female
LupXa,15,19,fem_plain,mal_sws,3,building_blocks,santa,santa,building_blocks,santa,fem_plain_mal_sws,critical,3/30/2017,9:43,right,true,3666,2,2_1_1_1,word_2_word_1,near,santa,Clear_After,preschool,hanna,2015-02-03,,English,,,,,,female
LupXa,16,8,fem_plain,mal_sws,1,wellyboots,fire_engine,fire_engine,wellyboots,fire_engine,fem_plain_mal_sws,critical,3/30/2017,9:43,right,false,7370,2,2_1_1_1,word_1_word_2,near,fire_engine,Clear_After,preschool,hanna,2015-02-03,,English,,,,,,female
LupXa,16,8,fem_plain,mal_sws,2,wellyboots,fire_engine,fire_engine,wellyboots,fire_engine,fem_plain_mal_sws,critical,3/30/2017,9:43,left,false,1726,2,2_1_1_1,word_1_word_2,near,wellyboots,Clear_After,preschool,hanna,2015-02-03,,English,,,,,,female
LupXa,16,8,fem_plain,mal_sws,3,wellyboots,fire_engine,fire_engine,wellyboots,fire_engine,fem_plain_mal_sws,critical,3/30/2017,9:43,right,true,4259,2,2_1_1_1,word_1_word_2,near,fire_engine,Clear_After,preschool,hanna,2015-02-03,,English,,,,,,female
LupXa,17,4,fem_plain,mal_sws,1,coat,strawberry,strawberry,coat,strawberry,fem_plain_mal_sws,critical,3/30/2017,9:43,left,true,3219,2,1_2_2_1,word_1_word_2,near,coat,Clear_After,preschool,hanna,2015-02-03,,English,,,,,,female
LupXa,17,4,fem_plain,mal_sws,2,coat,strawberry,strawberry,coat,strawberry,fem_plain_mal_sws,critical,3/30/2017,9:43,right,true,2188,2,1_2_2_1,word_1_word_2,near,strawberry,Clear_After,preschool,hanna,2015-02-03,,English,,,,,,female
LupXa,17,4,fem_plain,mal_sws,3,coat,strawberry,strawberry,coat,strawberry,fem_plain_mal_sws,critical,3/30/2017,9:43,right,true,3456,1,1_2_2_1,word_1_word_2,near,strawberry,Clear_After,preschool,hanna,2015-02-03,,English,,,,,,female
LupXa,18,24,fem_plain,mal_sws,1,sink,fish,sink,fish,sink,fem_plain_mal_sws,critical,3/30/2017,9:43,left,false,3418,2,2_1_2_1,word_2_word_1,far,fish,Clear_After,preschool,hanna,2015-02-03,,English,,,,,,female
LupXa,18,24,fem_plain,mal_sws,2,sink,fish,sink,fish,sink,fem_plain_mal_sws,critical,3/30/2017,9:43,right,false,1389,1,2_1_2_1,word_2_word_1,far,sink,Clear_After,preschool,hanna,2015-02-03,,English,,,,,,female
LupXa,18,24,fem_plain,mal_sws,3,sink,fish,sink,fish,sink,fem_plain_mal_sws,critical,3/30/2017,9:43,left,false,2532,2,2_1_2_1,word_2_word_1,far,fish,Clear_After,preschool,hanna,2015-02-03,,English,,,,,,female
LupXa,19,11,fem_plain,mal_sws,1,lorry,book,book,lorry,book,fem_plain_mal_sws,critical,3/30/2017,9:43,right,false,1719,2,1_2_2_1,word_2_word_1,near,book,Clear_After,preschool,hanna,2015-02-03,,English,,,,,,female
LupXa,19,11,fem_plain,mal_sws,2,lorry,book,book,lorry,book,fem_plain_mal_sws,critical,3/30/2017,9:43,left,false,475,1,1_2_2_1,word_2_word_1,near,lorry,Clear_After,preschool,hanna,2015-02-03,,English,,,,,,female
LupXa,19,11,fem_plain,mal_sws,3,lorry,book,book,lorry,book,fem_plain_mal_sws,critical,3/30/2017,9:43,right,true,4130,2,1_2_2_1,word_2_word_1,near,book,Clear_After,preschool,hanna,2015-02-03,,English,,,,,,female
LupXa,20,23,fem_plain,mal_sws,1,teddy_bear,bath,teddy_bear,teddy_bear,bath,fem_plain_mal_sws,critical,3/30/2017,9:43,right,false,8634,2,2_1_2_1,word_2_word_1,far,bath,Clear_After,preschool,hanna,2015-02-03,,English,,,,,,female
LupXa,20,23,fem_plain,mal_sws,2,teddy_bear,bath,teddy_bear,teddy_bear,bath,fem_plain_mal_sws,critical,3/30/2017,9:43,right,true,525,1,2_1_2_1,word_2_word_1,far,bath,Clear_After,preschool,hanna,2015-02-03,,English,,,,,,female
LupXa,20,23,fem_plain,mal_sws,3,teddy_bear,bath,teddy_bear,teddy_bear,bath,fem_plain_mal_sws,critical,3/30/2017,9:43,left,true,250,1,2_1_2_1,word_2_word_1,far,teddy_bear,Clear_After,preschool,hanna,2015-02-03,,English,,,,,,female
LupXa,21,15,fem_plain,mal_sws,1,pencil,slide,pencil,pencil,slide,fem_plain_mal_sws,critical,3/30/2017,9:43,left,true,4186,2,1_2_1_1,word_2_word_1,far,pencil,Clear_After,preschool,hanna,2015-02-03,,English,,,,,,female
LupXa,21,15,fem_plain,mal_sws,2,pencil,slide,pencil,pencil,slide,fem_plain_mal_sws,critical,3/30/2017,9:43,left,false,3259,2,1_2_1_1,word_2_word_1,far,pencil,Clear_After,preschool,hanna,2015-02-03,,English,,,,,,female
LupXa,21,15,fem_plain,mal_sws,3,pencil,slide,pencil,pencil,slide,fem_plain_mal_sws,critical,3/30/2017,9:43,right,false,2626,1,1_2_1_1,word_2_word_1,far,slide,Clear_After,preschool,hanna,2015-02-03,,English,,,,,,female
LupXa,22,9,fem_plain,mal_sws,1,pizza,window,pizza,pizza,window,fem_plain_mal_sws,critical,3/30/2017,9:43,right,false,3496,2,2_1_2_1,word_1_word_2,far,window,Clear_After,preschool,hanna,2015-02-03,,English,,,,,,female
LupXa,22,9,fem_plain,mal_sws,2,pizza,window,pizza,pizza,window,fem_plain_mal_sws,critical,3/30/2017,9:43,left,false,2615,1,2_1_2_1,word_1_word_2,far,pizza,Clear_After,preschool,hanna,2015-02-03,,English,,,,,,female
LupXa,22,9,fem_plain,mal_sws,3,pizza,window,pizza,pizza,window,fem_plain_mal_sws,critical,3/30/2017,9:43,right,false,2542,1,2_1_2_1,word_1_word_2,far,window,Clear_After,preschool,hanna,2015-02-03,,English,,,,,,female
LupXa,23,13,fem_plain,mal_sws,1,toothbrush,airplane,airplane,airplane,toothbrush,fem_plain_mal_sws,critical,3/30/2017,9:43,left,false,9582,2,1_2_2_1,word_2_word_1,near,airplane,Clear_After,preschool,hanna,2015-02-03,,English,,,,,,female
LupXa,23,13,fem_plain,mal_sws,2,toothbrush,airplane,airplane,airplane,toothbrush,fem_plain_mal_sws,critical,3/30/2017,9:43,right,false,474,1,1_2_2_1,word_2_word_1,near,toothbrush,Clear_After,preschool,hanna,2015-02-03,,English,,,,,,female
LupXa,23,13,fem_plain,mal_sws,3,toothbrush,airplane,airplane,airplane,toothbrush,fem_plain_mal_sws,critical,3/30/2017,9:43,left,true,2824,4,1_2_2_1,word_2_word_1,near,airplane,Clear_After,preschool,hanna,2015-02-03,,English,,,,,,female
LupXa,24,14,fem_plain,mal_sws,1,shoes,cheese,shoes,cheese,shoes,fem_plain_mal_sws,critical,3/30/2017,9:43,right,true,5434,2,1_2_1_1,word_1_word_2,far,shoes,Clear_After,preschool,hanna,2015-02-03,,English,,,,,,female
LupXa,24,14,fem_plain,mal_sws,2,shoes,cheese,shoes,cheese,shoes,fem_plain_mal_sws,critical,3/30/2017,9:43,right,false,3038,2,1_2_1_1,word_1_word_2,far,shoes,Clear_After,preschool,hanna,2015-02-03,,English,,,,,,female
LupXa,24,14,fem_plain,mal_sws,3,shoes,cheese,shoes,cheese,shoes,fem_plain_mal_sws,critical,3/30/2017,9:43,left,false,2710,2,1_2_1_1,word_1_word_2,far,cheese,Clear_After,preschool,hanna,2015-02-03,,English,,,,,,female
LupXa,25,18,fem_plain,mal_sws,1,raspberry,ball,raspberry,raspberry,ball,fem_plain_mal_sws,critical,3/30/2017,9:43,left,true,11153,2,1_2_1_1,word_2_word_1,far,raspberry,Clear_After,preschool,hanna,2015-02-03,,English,,,,,,female
LupXa,25,18,fem_plain,mal_sws,2,raspberry,ball,raspberry,raspberry,ball,fem_plain_mal_sws,critical,3/30/2017,9:43,right,true,736,2,1_2_1_1,word_2_word_1,far,ball,Clear_After,preschool,hanna,2015-02-03,,English,,,,,,female
LupXa,25,18,fem_plain,mal_sws,3,raspberry,ball,raspberry,raspberry,ball,fem_plain_mal_sws,critical,3/30/2017,9:43,right,false,2880,1,1_2_1_1,word_2_word_1,far,ball,Clear_After,preschool,hanna,2015-02-03,,English,,,,,,female
