subject_id,trial_number,trial_id,plain,sws,instruction_number,sound1_item,sound2_item,sound3_item,left_image,right_image,sound_gender,trial_type,date_stamp,time_stamp,side_chosen,accuracy,rt,play_counter,order,pic_position,distance,chosen_pic,test_lang,testing_loc,tester,date_of_birth,ethnicity,native_lang,other_langs,parental_occ,dev_info,birth_order,num_siblings,gender
nXTg2,1,0,fem_plain,fem_sws,1,fireman,glasses,fireman,glasses,fireman,fem_plain_fem_sws,training,3/22/2017,15:42,right,true,22473,2,1_2_1_1,word_2_word_1,far,fireman,Clear_Before,preschool,hanna,2012-09-09,,English,,,,,,male
nXTg2,1,0,fem_plain,fem_sws,2,fireman,glasses,fireman,glasses,fireman,fem_plain_fem_sws,training,3/22/2017,15:42,left,true,2189,2,1_2_1_1,word_2_word_1,far,glasses,Clear_Before,preschool,hanna,2012-09-09,,English,,,,,,male
nXTg2,1,0,fem_plain,fem_sws,3,fireman,glasses,fireman,glasses,fireman,fem_plain_fem_sws,training,3/22/2017,15:42,right,true,5025,4,1_2_1_1,word_2_word_1,far,fireman,Clear_Before,preschool,hanna,2012-09-09,,English,,,,,,male
nXTg2,2,21,fem_plain,fem_sws,1,sheep,frog,frog,frog,sheep,fem_plain_fem_sws,critical,3/22/2017,15:42,right,true,2353,2,1_2_2_1,word_1_word_2,near,sheep,Clear_Before,preschool,hanna,2012-09-09,,English,,,,,,male
nXTg2,2,21,fem_plain,fem_sws,2,sheep,frog,frog,frog,sheep,fem_plain_fem_sws,critical,3/22/2017,15:42,left,true,3244,1,1_2_2_1,word_1_word_2,near,frog,Clear_Before,preschool,hanna,2012-09-09,,English,,,,,,male
nXTg2,2,21,fem_plain,fem_sws,3,sheep,frog,frog,frog,sheep,fem_plain_fem_sws,critical,3/22/2017,15:42,left,true,4517,2,1_2_2_1,word_1_word_2,near,frog,Clear_Before,preschool,hanna,2012-09-09,,English,,,,,,male
nXTg2,3,24,fem_plain,fem_sws,1,fish,sink,sink,sink,fish,fem_plain_fem_sws,critical,3/22/2017,15:42,right,true,2455,2,2_1_1_1,word_1_word_2,near,fish,Clear_Before,preschool,hanna,2012-09-09,,English,,,,,,male
nXTg2,3,24,fem_plain,fem_sws,2,fish,sink,sink,sink,fish,fem_plain_fem_sws,critical,3/22/2017,15:42,left,true,2696,1,2_1_1_1,word_1_word_2,near,sink,Clear_Before,preschool,hanna,2012-09-09,,English,,,,,,male
nXTg2,3,24,fem_plain,fem_sws,3,fish,sink,sink,sink,fish,fem_plain_fem_sws,critical,3/22/2017,15:42,left,true,3798,1,2_1_1_1,word_1_word_2,near,sink,Clear_Before,preschool,hanna,2012-09-09,,English,,,,,,male
nXTg2,4,18,fem_plain,fem_sws,1,ball,raspberry,raspberry,raspberry,ball,fem_plain_fem_sws,critical,3/22/2017,15:42,right,true,2922,2,2_1_1_1,word_2_word_1,near,ball,Clear_Before,preschool,hanna,2012-09-09,,English,,,,,,male
nXTg2,4,18,fem_plain,fem_sws,2,ball,raspberry,raspberry,raspberry,ball,fem_plain_fem_sws,critical,3/22/2017,15:42,left,true,2886,2,2_1_1_1,word_2_word_1,near,raspberry,Clear_Before,preschool,hanna,2012-09-09,,English,,,,,,male
nXTg2,4,18,fem_plain,fem_sws,3,ball,raspberry,raspberry,raspberry,ball,fem_plain_fem_sws,critical,3/22/2017,15:42,left,true,3036,1,2_1_1_1,word_2_word_1,near,raspberry,Clear_Before,preschool,hanna,2012-09-09,,English,,,,,,male
nXTg2,5,9,fem_plain,fem_sws,1,pizza,window,window,pizza,window,fem_plain_fem_sws,critical,3/22/2017,15:42,left,true,3047,2,1_2_2_1,word_1_word_2,near,pizza,Clear_Before,preschool,hanna,2012-09-09,,English,,,,,,male
nXTg2,5,9,fem_plain,fem_sws,2,pizza,window,window,pizza,window,fem_plain_fem_sws,critical,3/22/2017,15:42,right,true,2370,1,1_2_2_1,word_1_word_2,near,window,Clear_Before,preschool,hanna,2012-09-09,,English,,,,,,male
nXTg2,5,9,fem_plain,fem_sws,3,pizza,window,window,pizza,window,fem_plain_fem_sws,critical,3/22/2017,15:42,right,true,2524,1,1_2_2_1,word_1_word_2,near,window,Clear_Before,preschool,hanna,2012-09-09,,English,,,,,,male
nXTg2,6,5,fem_plain,fem_sws,1,car,orange,car,orange,car,fem_plain_fem_sws,critical,3/22/2017,15:42,right,true,2367,4,2_1_2_1,word_1_word_2,far,car,Clear_Before,preschool,hanna,2012-09-09,,English,,,,,,male
nXTg2,6,5,fem_plain,fem_sws,2,car,orange,car,orange,car,fem_plain_fem_sws,critical,3/22/2017,15:42,left,true,2836,2,2_1_2_1,word_1_word_2,far,orange,Clear_Before,preschool,hanna,2012-09-09,,English,,,,,,male
nXTg2,6,5,fem_plain,fem_sws,3,car,orange,car,orange,car,fem_plain_fem_sws,critical,3/22/2017,15:42,left,false,3951,1,2_1_2_1,word_1_word_2,far,orange,Clear_Before,preschool,hanna,2012-09-09,,English,,,,,,male
nXTg2,7,14,fem_plain,fem_sws,1,shoes,cheese,cheese,cheese,shoes,fem_plain_fem_sws,critical,3/22/2017,15:42,right,true,2717,2,1_2_2_1,word_1_word_2,near,shoes,Clear_Before,preschool,hanna,2012-09-09,,English,,,,,,male
nXTg2,7,14,fem_plain,fem_sws,2,shoes,cheese,cheese,cheese,shoes,fem_plain_fem_sws,critical,3/22/2017,15:42,left,true,2242,1,1_2_2_1,word_1_word_2,near,cheese,Clear_Before,preschool,hanna,2012-09-09,,English,,,,,,male
nXTg2,7,14,fem_plain,fem_sws,3,shoes,cheese,cheese,cheese,shoes,fem_plain_fem_sws,critical,3/22/2017,15:42,left,true,2823,1,1_2_2_1,word_1_word_2,near,cheese,Clear_Before,preschool,hanna,2012-09-09,,English,,,,,,male
nXTg2,8,22,fem_plain,fem_sws,1,dog,bike,dog,dog,bike,fem_plain_fem_sws,critical,3/22/2017,15:42,left,true,2596,2,2_1_2_1,word_2_word_1,far,dog,Clear_Before,preschool,hanna,2012-09-09,,English,,,,,,male
nXTg2,8,22,fem_plain,fem_sws,2,dog,bike,dog,dog,bike,fem_plain_fem_sws,critical,3/22/2017,15:42,right,true,3871,1,2_1_2_1,word_2_word_1,far,bike,Clear_Before,preschool,hanna,2012-09-09,,English,,,,,,male
nXTg2,8,22,fem_plain,fem_sws,3,dog,bike,dog,dog,bike,fem_plain_fem_sws,critical,3/22/2017,15:42,left,true,2947,1,2_1_2_1,word_2_word_1,far,dog,Clear_Before,preschool,hanna,2012-09-09,,English,,,,,,male
nXTg2,9,13,fem_plain,fem_sws,1,airplane,toothbrush,airplane,toothbrush,airplane,fem_plain_fem_sws,critical,3/22/2017,15:42,right,true,2358,4,2_1_2_1,word_1_word_2,far,airplane,Clear_Before,preschool,hanna,2012-09-09,,English,,,,,,male
nXTg2,9,13,fem_plain,fem_sws,2,airplane,toothbrush,airplane,toothbrush,airplane,fem_plain_fem_sws,critical,3/22/2017,15:42,left,true,2436,2,2_1_2_1,word_1_word_2,far,toothbrush,Clear_Before,preschool,hanna,2012-09-09,,English,,,,,,male
nXTg2,9,13,fem_plain,fem_sws,3,airplane,toothbrush,airplane,toothbrush,airplane,fem_plain_fem_sws,critical,3/22/2017,15:42,right,true,4253,2,2_1_2_1,word_1_word_2,far,airplane,Clear_Before,preschool,hanna,2012-09-09,,English,,,,,,male
nXTg2,10,2,fem_plain,fem_sws,1,bed,chicken,chicken,chicken,bed,fem_plain_fem_sws,critical,3/22/2017,15:42,right,true,3111,2,2_1_1_1,word_2_word_1,near,bed,Clear_Before,preschool,hanna,2012-09-09,,English,,,,,,male
nXTg2,10,2,fem_plain,fem_sws,2,bed,chicken,chicken,chicken,bed,fem_plain_fem_sws,critical,3/22/2017,15:42,left,true,2735,1,2_1_1_1,word_2_word_1,near,chicken,Clear_Before,preschool,hanna,2012-09-09,,English,,,,,,male
nXTg2,10,2,fem_plain,fem_sws,3,bed,chicken,chicken,chicken,bed,fem_plain_fem_sws,critical,3/22/2017,15:42,left,true,3038,2,2_1_1_1,word_2_word_1,near,chicken,Clear_Before,preschool,hanna,2012-09-09,,English,,,,,,male
nXTg2,11,8,fem_plain,fem_sws,1,fire_engine,wellyboots,fire_engine,fire_engine,wellyboots,fem_plain_fem_sws,critical,3/22/2017,15:42,left,true,3381,2,1_2_1_1,word_2_word_1,far,fire_engine,Clear_Before,preschool,hanna,2012-09-09,,English,,,,,,male
nXTg2,11,8,fem_plain,fem_sws,2,fire_engine,wellyboots,fire_engine,fire_engine,wellyboots,fem_plain_fem_sws,critical,3/22/2017,15:42,right,true,3089,1,1_2_1_1,word_2_word_1,far,wellyboots,Clear_Before,preschool,hanna,2012-09-09,,English,,,,,,male
nXTg2,11,8,fem_plain,fem_sws,3,fire_engine,wellyboots,fire_engine,fire_engine,wellyboots,fem_plain_fem_sws,critical,3/22/2017,15:42,left,true,3496,1,1_2_1_1,word_2_word_1,far,fire_engine,Clear_Before,preschool,hanna,2012-09-09,,English,,,,,,male
nXTg2,12,23,fem_plain,fem_sws,1,bath,teddy_bear,bath,bath,teddy_bear,fem_plain_fem_sws,critical,3/22/2017,15:42,left,true,3106,2,2_1_2_1,word_1_word_2,far,bath,Clear_Before,preschool,hanna,2012-09-09,,English,,,,,,male
nXTg2,12,23,fem_plain,fem_sws,2,bath,teddy_bear,bath,bath,teddy_bear,fem_plain_fem_sws,critical,3/22/2017,15:42,right,true,2953,2,2_1_2_1,word_1_word_2,far,teddy_bear,Clear_Before,preschool,hanna,2012-09-09,,English,,,,,,male
nXTg2,12,23,fem_plain,fem_sws,3,bath,teddy_bear,bath,bath,teddy_bear,fem_plain_fem_sws,critical,3/22/2017,15:42,left,true,3084,1,2_1_2_1,word_1_word_2,far,bath,Clear_Before,preschool,hanna,2012-09-09,,English,,,,,,male
nXTg2,13,11,fem_plain,fem_sws,1,book,lorry,book,lorry,book,fem_plain_fem_sws,critical,3/22/2017,15:42,right,true,2726,2,1_2_1_1,word_2_word_1,far,book,Clear_Before,preschool,hanna,2012-09-09,,English,,,,,,male
nXTg2,13,11,fem_plain,fem_sws,2,book,lorry,book,lorry,book,fem_plain_fem_sws,critical,3/22/2017,15:42,left,true,2137,1,1_2_1_1,word_2_word_1,far,lorry,Clear_Before,preschool,hanna,2012-09-09,,English,,,,,,male
nXTg2,13,11,fem_plain,fem_sws,3,book,lorry,book,lorry,book,fem_plain_fem_sws,critical,3/22/2017,15:42,right,true,3283,1,1_2_1_1,word_2_word_1,far,book,Clear_Before,preschool,hanna,2012-09-09,,English,,,,,,male
nXTg2,14,15,fem_plain,fem_sws,1,slide,pencil,slide,pencil,slide,fem_plain_fem_sws,critical,3/22/2017,15:42,right,true,2900,2,1_2_1_1,word_2_word_1,far,slide,Clear_Before,preschool,hanna,2012-09-09,,English,,,,,,male
nXTg2,14,15,fem_plain,fem_sws,2,slide,pencil,slide,pencil,slide,fem_plain_fem_sws,critical,3/22/2017,15:42,left,true,2244,1,1_2_1_1,word_2_word_1,far,pencil,Clear_Before,preschool,hanna,2012-09-09,,English,,,,,,male
nXTg2,14,15,fem_plain,fem_sws,3,slide,pencil,slide,pencil,slide,fem_plain_fem_sws,critical,3/22/2017,15:42,right,true,3262,1,1_2_1_1,word_2_word_1,far,slide,Clear_Before,preschool,hanna,2012-09-09,,English,,,,,,male
nXTg2,15,20,fem_plain,fem_sws,1,rabbit,jumper,rabbit,rabbit,jumper,fem_plain_fem_sws,critical,3/22/2017,15:42,left,true,2567,2,2_1_2_1,word_2_word_1,far,rabbit,Clear_Before,preschool,hanna,2012-09-09,,English,,,,,,male
nXTg2,15,20,fem_plain,fem_sws,2,rabbit,jumper,rabbit,rabbit,jumper,fem_plain_fem_sws,critical,3/22/2017,15:42,right,true,2110,1,2_1_2_1,word_2_word_1,far,jumper,Clear_Before,preschool,hanna,2012-09-09,,English,,,,,,male
nXTg2,15,20,fem_plain,fem_sws,3,rabbit,jumper,rabbit,rabbit,jumper,fem_plain_fem_sws,critical,3/22/2017,15:42,left,true,2847,1,2_1_2_1,word_2_word_1,far,rabbit,Clear_Before,preschool,hanna,2012-09-09,,English,,,,,,male
nXTg2,16,6,fem_plain,fem_sws,1,peas,bird,bird,peas,bird,fem_plain_fem_sws,critical,3/22/2017,15:42,left,true,2695,2,2_1_1_1,word_2_word_1,near,peas,Clear_Before,preschool,hanna,2012-09-09,,English,,,,,,male
nXTg2,16,6,fem_plain,fem_sws,2,peas,bird,bird,peas,bird,fem_plain_fem_sws,critical,3/22/2017,15:42,right,true,3115,1,2_1_1_1,word_2_word_1,near,bird,Clear_Before,preschool,hanna,2012-09-09,,English,,,,,,male
nXTg2,16,6,fem_plain,fem_sws,3,peas,bird,bird,peas,bird,fem_plain_fem_sws,critical,3/22/2017,15:42,right,true,2945,2,2_1_1_1,word_2_word_1,near,bird,Clear_Before,preschool,hanna,2012-09-09,,English,,,,,,male
nXTg2,17,1,fem_plain,fem_sws,1,baby,spoon,spoon,spoon,baby,fem_plain_fem_sws,critical,3/22/2017,15:42,right,true,2803,2,1_2_2_1,word_1_word_2,near,baby,Clear_Before,preschool,hanna,2012-09-09,,English,,,,,,male
nXTg2,17,1,fem_plain,fem_sws,2,baby,spoon,spoon,spoon,baby,fem_plain_fem_sws,critical,3/22/2017,15:42,left,true,2599,1,1_2_2_1,word_1_word_2,near,spoon,Clear_Before,preschool,hanna,2012-09-09,,English,,,,,,male
nXTg2,17,1,fem_plain,fem_sws,3,baby,spoon,spoon,spoon,baby,fem_plain_fem_sws,critical,3/22/2017,15:42,left,true,2647,1,1_2_2_1,word_1_word_2,near,spoon,Clear_Before,preschool,hanna,2012-09-09,,English,,,,,,male
nXTg2,18,7,fem_plain,fem_sws,1,lolly,horse,lolly,lolly,horse,fem_plain_fem_sws,critical,3/22/2017,15:42,left,true,6093,2,2_1_2_1,word_1_word_2,far,lolly,Clear_Before,preschool,hanna,2012-09-09,,English,,,,,,male
nXTg2,18,7,fem_plain,fem_sws,2,lolly,horse,lolly,lolly,horse,fem_plain_fem_sws,critical,3/22/2017,15:42,left,false,3949,2,2_1_2_1,word_1_word_2,far,lolly,Clear_Before,preschool,hanna,2012-09-09,,English,,,,,,male
nXTg2,18,7,fem_plain,fem_sws,3,lolly,horse,lolly,lolly,horse,fem_plain_fem_sws,critical,3/22/2017,15:42,right,false,2244,1,2_1_2_1,word_1_word_2,far,horse,Clear_Before,preschool,hanna,2012-09-09,,English,,,,,,male
nXTg2,19,17,fem_plain,fem_sws,1,cake,ambulance,ambulance,ambulance,cake,fem_plain_fem_sws,critical,3/22/2017,15:42,left,false,4196,2,2_1_1_1,word_2_word_1,near,ambulance,Clear_Before,preschool,hanna,2012-09-09,,English,,,,,,male
nXTg2,19,17,fem_plain,fem_sws,2,cake,ambulance,ambulance,ambulance,cake,fem_plain_fem_sws,critical,3/22/2017,15:42,right,false,2429,1,2_1_1_1,word_2_word_1,near,cake,Clear_Before,preschool,hanna,2012-09-09,,English,,,,,,male
nXTg2,19,17,fem_plain,fem_sws,3,cake,ambulance,ambulance,ambulance,cake,fem_plain_fem_sws,critical,3/22/2017,15:42,left,true,2705,1,2_1_1_1,word_2_word_1,near,ambulance,Clear_Before,preschool,hanna,2012-09-09,,English,,,,,,male
nXTg2,20,19,fem_plain,fem_sws,1,santa,building_blocks,building_blocks,building_blocks,santa,fem_plain_fem_sws,critical,3/22/2017,15:42,left,false,3187,2,1_2_2_1,word_2_word_1,near,building_blocks,Clear_Before,preschool,hanna,2012-09-09,,English,,,,,,male
nXTg2,20,19,fem_plain,fem_sws,2,santa,building_blocks,building_blocks,building_blocks,santa,fem_plain_fem_sws,critical,3/22/2017,15:42,right,false,3060,2,1_2_2_1,word_2_word_1,near,santa,Clear_Before,preschool,hanna,2012-09-09,,English,,,,,,male
nXTg2,20,19,fem_plain,fem_sws,3,santa,building_blocks,building_blocks,building_blocks,santa,fem_plain_fem_sws,critical,3/22/2017,15:42,left,true,2806,1,1_2_2_1,word_2_word_1,near,building_blocks,Clear_Before,preschool,hanna,2012-09-09,,English,,,,,,male
nXTg2,21,3,fem_plain,fem_sws,1,trousers,nose,trousers,trousers,nose,fem_plain_fem_sws,critical,3/22/2017,15:42,left,true,2781,2,1_2_1_1,word_1_word_2,far,trousers,Clear_Before,preschool,hanna,2012-09-09,,English,,,,,,male
nXTg2,21,3,fem_plain,fem_sws,2,trousers,nose,trousers,trousers,nose,fem_plain_fem_sws,critical,3/22/2017,15:42,left,false,2706,1,1_2_1_1,word_1_word_2,far,trousers,Clear_Before,preschool,hanna,2012-09-09,,English,,,,,,male
nXTg2,21,3,fem_plain,fem_sws,3,trousers,nose,trousers,trousers,nose,fem_plain_fem_sws,critical,3/22/2017,15:42,right,false,2473,1,1_2_1_1,word_1_word_2,far,nose,Clear_Before,preschool,hanna,2012-09-09,,English,,,,,,male
nXTg2,22,4,fem_plain,fem_sws,1,strawberry,coat,coat,coat,strawberry,fem_plain_fem_sws,critical,3/22/2017,15:42,left,false,3533,2,2_1_1_1,word_1_word_2,near,coat,Clear_Before,preschool,hanna,2012-09-09,,English,,,,,,male
nXTg2,22,4,fem_plain,fem_sws,2,strawberry,coat,coat,coat,strawberry,fem_plain_fem_sws,critical,3/22/2017,15:42,right,false,2244,1,2_1_1_1,word_1_word_2,near,strawberry,Clear_Before,preschool,hanna,2012-09-09,,English,,,,,,male
nXTg2,22,4,fem_plain,fem_sws,3,strawberry,coat,coat,coat,strawberry,fem_plain_fem_sws,critical,3/22/2017,15:42,left,true,2731,1,2_1_1_1,word_1_word_2,near,coat,Clear_Before,preschool,hanna,2012-09-09,,English,,,,,,male
nXTg2,23,16,fem_plain,fem_sws,1,paintbrush,banana,paintbrush,banana,paintbrush,fem_plain_fem_sws,critical,3/22/2017,15:42,right,true,3412,2,1_2_1_1,word_2_word_1,far,paintbrush,Clear_Before,preschool,hanna,2012-09-09,,English,,,,,,male
nXTg2,23,16,fem_plain,fem_sws,2,paintbrush,banana,paintbrush,banana,paintbrush,fem_plain_fem_sws,critical,3/22/2017,15:42,right,false,3354,1,1_2_1_1,word_2_word_1,far,paintbrush,Clear_Before,preschool,hanna,2012-09-09,,English,,,,,,male
nXTg2,23,16,fem_plain,fem_sws,3,paintbrush,banana,paintbrush,banana,paintbrush,fem_plain_fem_sws,critical,3/22/2017,15:42,left,false,2206,1,1_2_1_1,word_2_word_1,far,banana,Clear_Before,preschool,hanna,2012-09-09,,English,,,,,,male
nXTg2,24,10,fem_plain,fem_sws,1,pig,tshirt,tshirt,tshirt,pig,fem_plain_fem_sws,critical,3/22/2017,15:42,left,false,4765,2,1_2_2_1,word_2_word_1,near,tshirt,Clear_Before,preschool,hanna,2012-09-09,,English,,,,,,male
nXTg2,24,10,fem_plain,fem_sws,2,pig,tshirt,tshirt,tshirt,pig,fem_plain_fem_sws,critical,3/22/2017,15:42,right,false,2444,1,1_2_2_1,word_2_word_1,near,pig,Clear_Before,preschool,hanna,2012-09-09,,English,,,,,,male
nXTg2,24,10,fem_plain,fem_sws,3,pig,tshirt,tshirt,tshirt,pig,fem_plain_fem_sws,critical,3/22/2017,15:42,left,true,3350,2,1_2_2_1,word_2_word_1,near,tshirt,Clear_Before,preschool,hanna,2012-09-09,,English,,,,,,male
nXTg2,25,12,fem_plain,fem_sws,1,yoghurt,foot,yoghurt,yoghurt,foot,fem_plain_fem_sws,critical,3/22/2017,15:42,right,false,3014,2,1_2_1_1,word_2_word_1,far,foot,Clear_Before,preschool,hanna,2012-09-09,,English,,,,,,male
nXTg2,25,12,fem_plain,fem_sws,2,yoghurt,foot,yoghurt,yoghurt,foot,fem_plain_fem_sws,critical,3/22/2017,15:42,left,false,3338,1,1_2_1_1,word_2_word_1,far,yoghurt,Clear_Before,preschool,hanna,2012-09-09,,English,,,,,,male
nXTg2,25,12,fem_plain,fem_sws,3,yoghurt,foot,yoghurt,yoghurt,foot,fem_plain_fem_sws,critical,3/22/2017,15:42,right,false,2352,1,1_2_1_1,word_2_word_1,far,foot,Clear_Before,preschool,hanna,2012-09-09,,English,,,,,,male
