subject_id,trial_number,trial_id,plain,sws,instruction_number,sound1_item,sound2_item,sound3_item,left_image,right_image,sound_gender,trial_type,date_stamp,time_stamp,side_chosen,accuracy,rt,play_counter,order,pic_position,distance,chosen_pic,test_lang,testing_loc,tester,date_of_birth,ethnicity,native_lang,other_langs,parental_occ,dev_info,birth_order,num_siblings,gender
PtJ9w,1,0,mal_plain,mal_sws,1,glasses,fireman,fireman,glasses,fireman,mal_plain_mal_sws,training,3/9/2017,10:21,right,false,4181,8,1_2_2_1,word_2_word_1,near,fireman,Clear_After,preschool,hanna,2012-10-24,,English,,,,2,1,male
PtJ9w,1,0,mal_plain,mal_sws,2,glasses,fireman,fireman,glasses,fireman,mal_plain_mal_sws,training,3/9/2017,10:21,left,false,2613,2,1_2_2_1,word_2_word_1,near,glasses,Clear_After,preschool,hanna,2012-10-24,,English,,,,2,1,male
PtJ9w,1,0,mal_plain,mal_sws,3,glasses,fireman,fireman,glasses,fireman,mal_plain_mal_sws,training,3/9/2017,10:21,right,true,1920,2,1_2_2_1,word_2_word_1,near,fireman,Clear_After,preschool,hanna,2012-10-24,,English,,,,2,1,male
PtJ9w,2,11,mal_plain,mal_sws,1,book,lorry,lorry,book,lorry,mal_plain_mal_sws,critical,3/9/2017,10:21,right,false,3173,2,1_2_2_1,word_1_word_2,near,lorry,Clear_After,preschool,hanna,2012-10-24,,English,,,,2,1,male
PtJ9w,2,11,mal_plain,mal_sws,2,book,lorry,lorry,book,lorry,mal_plain_mal_sws,critical,3/9/2017,10:21,left,false,1602,3,1_2_2_1,word_1_word_2,near,book,Clear_After,preschool,hanna,2012-10-24,,English,,,,2,1,male
PtJ9w,2,11,mal_plain,mal_sws,3,book,lorry,lorry,book,lorry,mal_plain_mal_sws,critical,3/9/2017,10:21,right,true,2350,1,1_2_2_1,word_1_word_2,near,lorry,Clear_After,preschool,hanna,2012-10-24,,English,,,,2,1,male
PtJ9w,3,4,mal_plain,mal_sws,1,strawberry,coat,strawberry,coat,strawberry,mal_plain_mal_sws,critical,3/9/2017,10:21,right,true,2014,2,2_1_2_1,word_1_word_2,far,strawberry,Clear_After,preschool,hanna,2012-10-24,,English,,,,2,1,male
PtJ9w,3,4,mal_plain,mal_sws,2,strawberry,coat,strawberry,coat,strawberry,mal_plain_mal_sws,critical,3/9/2017,10:21,left,true,4085,2,2_1_2_1,word_1_word_2,far,coat,Clear_After,preschool,hanna,2012-10-24,,English,,,,2,1,male
PtJ9w,3,4,mal_plain,mal_sws,3,strawberry,coat,strawberry,coat,strawberry,mal_plain_mal_sws,critical,3/9/2017,10:21,left,false,2525,1,2_1_2_1,word_1_word_2,far,coat,Clear_After,preschool,hanna,2012-10-24,,English,,,,2,1,male
PtJ9w,4,8,mal_plain,mal_sws,1,wellyboots,fire_engine,fire_engine,fire_engine,wellyboots,mal_plain_mal_sws,critical,3/9/2017,10:21,right,true,3464,2,2_1_1_1,word_2_word_1,near,wellyboots,Clear_After,preschool,hanna,2012-10-24,,English,,,,2,1,male
PtJ9w,4,8,mal_plain,mal_sws,2,wellyboots,fire_engine,fire_engine,fire_engine,wellyboots,mal_plain_mal_sws,critical,3/9/2017,10:21,right,false,2448,2,2_1_1_1,word_2_word_1,near,wellyboots,Clear_After,preschool,hanna,2012-10-24,,English,,,,2,1,male
PtJ9w,4,8,mal_plain,mal_sws,3,wellyboots,fire_engine,fire_engine,fire_engine,wellyboots,mal_plain_mal_sws,critical,3/9/2017,10:21,left,true,2696,2,2_1_1_1,word_2_word_1,near,fire_engine,Clear_After,preschool,hanna,2012-10-24,,English,,,,2,1,male
PtJ9w,5,6,mal_plain,mal_sws,1,peas,bird,bird,bird,peas,mal_plain_mal_sws,critical,3/9/2017,10:21,right,true,2172,4,2_1_1_1,word_1_word_2,near,peas,Clear_After,preschool,hanna,2012-10-24,,English,,,,2,1,male
PtJ9w,5,6,mal_plain,mal_sws,2,peas,bird,bird,bird,peas,mal_plain_mal_sws,critical,3/9/2017,10:21,right,false,2096,1,2_1_1_1,word_1_word_2,near,peas,Clear_After,preschool,hanna,2012-10-24,,English,,,,2,1,male
PtJ9w,5,6,mal_plain,mal_sws,3,peas,bird,bird,bird,peas,mal_plain_mal_sws,critical,3/9/2017,10:21,left,true,1571,1,2_1_1_1,word_1_word_2,near,bird,Clear_After,preschool,hanna,2012-10-24,,English,,,,2,1,male
PtJ9w,6,3,mal_plain,mal_sws,1,nose,trousers,nose,nose,trousers,mal_plain_mal_sws,critical,3/9/2017,10:21,right,false,3970,2,2_1_2_1,word_2_word_1,far,trousers,Clear_After,preschool,hanna,2012-10-24,,English,,,,2,1,male
PtJ9w,6,3,mal_plain,mal_sws,2,nose,trousers,nose,nose,trousers,mal_plain_mal_sws,critical,3/9/2017,10:21,left,false,3535,2,2_1_2_1,word_2_word_1,far,nose,Clear_After,preschool,hanna,2012-10-24,,English,,,,2,1,male
PtJ9w,6,3,mal_plain,mal_sws,3,nose,trousers,nose,nose,trousers,mal_plain_mal_sws,critical,3/9/2017,10:21,right,false,2033,2,2_1_2_1,word_2_word_1,far,trousers,Clear_After,preschool,hanna,2012-10-24,,English,,,,2,1,male
PtJ9w,7,14,mal_plain,mal_sws,1,shoes,cheese,cheese,cheese,shoes,mal_plain_mal_sws,critical,3/9/2017,10:21,right,true,2671,1,1_2_2_1,word_1_word_2,near,shoes,Clear_After,preschool,hanna,2012-10-24,,English,,,,2,1,male
PtJ9w,7,14,mal_plain,mal_sws,2,shoes,cheese,cheese,cheese,shoes,mal_plain_mal_sws,critical,3/9/2017,10:21,right,false,2069,1,1_2_2_1,word_1_word_2,near,shoes,Clear_After,preschool,hanna,2012-10-24,,English,,,,2,1,male
PtJ9w,7,14,mal_plain,mal_sws,3,shoes,cheese,cheese,cheese,shoes,mal_plain_mal_sws,critical,3/9/2017,10:21,left,true,2851,1,1_2_2_1,word_1_word_2,near,cheese,Clear_After,preschool,hanna,2012-10-24,,English,,,,2,1,male
PtJ9w,8,13,mal_plain,mal_sws,1,airplane,toothbrush,airplane,toothbrush,airplane,mal_plain_mal_sws,critical,3/9/2017,10:21,right,true,2247,3,2_1_2_1,word_1_word_2,far,airplane,Clear_After,preschool,hanna,2012-10-24,,English,,,,2,1,male
PtJ9w,8,13,mal_plain,mal_sws,2,airplane,toothbrush,airplane,toothbrush,airplane,mal_plain_mal_sws,critical,3/9/2017,10:21,right,false,2004,3,2_1_2_1,word_1_word_2,far,airplane,Clear_After,preschool,hanna,2012-10-24,,English,,,,2,1,male
PtJ9w,8,13,mal_plain,mal_sws,3,airplane,toothbrush,airplane,toothbrush,airplane,mal_plain_mal_sws,critical,3/9/2017,10:21,left,false,1942,2,2_1_2_1,word_1_word_2,far,toothbrush,Clear_After,preschool,hanna,2012-10-24,,English,,,,2,1,male
PtJ9w,9,15,mal_plain,mal_sws,1,pencil,slide,pencil,slide,pencil,mal_plain_mal_sws,critical,3/9/2017,10:21,right,true,2932,2,2_1_2_1,word_1_word_2,far,pencil,Clear_After,preschool,hanna,2012-10-24,,English,,,,2,1,male
PtJ9w,9,15,mal_plain,mal_sws,2,pencil,slide,pencil,slide,pencil,mal_plain_mal_sws,critical,3/9/2017,10:21,right,false,1985,1,2_1_2_1,word_1_word_2,far,pencil,Clear_After,preschool,hanna,2012-10-24,,English,,,,2,1,male
PtJ9w,9,15,mal_plain,mal_sws,3,pencil,slide,pencil,slide,pencil,mal_plain_mal_sws,critical,3/9/2017,10:21,left,false,2138,1,2_1_2_1,word_1_word_2,far,slide,Clear_After,preschool,hanna,2012-10-24,,English,,,,2,1,male
PtJ9w,10,12,mal_plain,mal_sws,1,yoghurt,foot,yoghurt,yoghurt,foot,mal_plain_mal_sws,critical,3/9/2017,10:21,right,false,2772,1,1_2_1_1,word_2_word_1,far,foot,Clear_After,preschool,hanna,2012-10-24,,English,,,,2,1,male
PtJ9w,10,12,mal_plain,mal_sws,2,yoghurt,foot,yoghurt,yoghurt,foot,mal_plain_mal_sws,critical,3/9/2017,10:21,left,false,2994,2,1_2_1_1,word_2_word_1,far,yoghurt,Clear_After,preschool,hanna,2012-10-24,,English,,,,2,1,male
PtJ9w,10,12,mal_plain,mal_sws,3,yoghurt,foot,yoghurt,yoghurt,foot,mal_plain_mal_sws,critical,3/9/2017,10:21,right,false,1903,2,1_2_1_1,word_2_word_1,far,foot,Clear_After,preschool,hanna,2012-10-24,,English,,,,2,1,male
PtJ9w,11,16,mal_plain,mal_sws,1,paintbrush,banana,paintbrush,banana,paintbrush,mal_plain_mal_sws,critical,3/9/2017,10:21,right,true,2952,2,2_1_2_1,word_2_word_1,far,paintbrush,Clear_After,preschool,hanna,2012-10-24,,English,,,,2,1,male
PtJ9w,11,16,mal_plain,mal_sws,2,paintbrush,banana,paintbrush,banana,paintbrush,mal_plain_mal_sws,critical,3/9/2017,10:21,right,false,2722,1,2_1_2_1,word_2_word_1,far,paintbrush,Clear_After,preschool,hanna,2012-10-24,,English,,,,2,1,male
PtJ9w,11,16,mal_plain,mal_sws,3,paintbrush,banana,paintbrush,banana,paintbrush,mal_plain_mal_sws,critical,3/9/2017,10:21,left,false,2125,2,2_1_2_1,word_2_word_1,far,banana,Clear_After,preschool,hanna,2012-10-24,,English,,,,2,1,male
PtJ9w,12,23,mal_plain,mal_sws,1,bath,teddy_bear,teddy_bear,bath,teddy_bear,mal_plain_mal_sws,critical,3/9/2017,10:21,right,false,3349,2,1_2_2_1,word_1_word_2,near,teddy_bear,Clear_After,preschool,hanna,2012-10-24,,English,,,,2,1,male
PtJ9w,12,23,mal_plain,mal_sws,2,bath,teddy_bear,teddy_bear,bath,teddy_bear,mal_plain_mal_sws,critical,3/9/2017,10:21,left,false,2409,3,1_2_2_1,word_1_word_2,near,bath,Clear_After,preschool,hanna,2012-10-24,,English,,,,2,1,male
PtJ9w,12,23,mal_plain,mal_sws,3,bath,teddy_bear,teddy_bear,bath,teddy_bear,mal_plain_mal_sws,critical,3/9/2017,10:21,right,true,1890,2,1_2_2_1,word_1_word_2,near,teddy_bear,Clear_After,preschool,hanna,2012-10-24,,English,,,,2,1,male
PtJ9w,13,7,mal_plain,mal_sws,1,lolly,horse,lolly,lolly,horse,mal_plain_mal_sws,critical,3/9/2017,10:21,right,false,1635,1,1_2_1_1,word_1_word_2,far,horse,Clear_After,preschool,hanna,2012-10-24,,English,,,,2,1,male
PtJ9w,13,7,mal_plain,mal_sws,2,lolly,horse,lolly,lolly,horse,mal_plain_mal_sws,critical,3/9/2017,10:21,left,false,2653,2,1_2_1_1,word_1_word_2,far,lolly,Clear_After,preschool,hanna,2012-10-24,,English,,,,2,1,male
PtJ9w,13,7,mal_plain,mal_sws,3,lolly,horse,lolly,lolly,horse,mal_plain_mal_sws,critical,3/9/2017,10:21,right,false,2539,2,1_2_1_1,word_1_word_2,far,horse,Clear_After,preschool,hanna,2012-10-24,,English,,,,2,1,male
PtJ9w,14,17,mal_plain,mal_sws,1,cake,ambulance,cake,ambulance,cake,mal_plain_mal_sws,critical,3/9/2017,10:21,right,true,2381,2,1_2_1_1,word_2_word_1,far,cake,Clear_After,preschool,hanna,2012-10-24,,English,,,,2,1,male
PtJ9w,14,17,mal_plain,mal_sws,2,cake,ambulance,cake,ambulance,cake,mal_plain_mal_sws,critical,3/9/2017,10:21,right,false,2135,1,1_2_1_1,word_2_word_1,far,cake,Clear_After,preschool,hanna,2012-10-24,,English,,,,2,1,male
PtJ9w,14,17,mal_plain,mal_sws,3,cake,ambulance,cake,ambulance,cake,mal_plain_mal_sws,critical,3/9/2017,10:21,left,false,1821,1,1_2_1_1,word_2_word_1,far,ambulance,Clear_After,preschool,hanna,2012-10-24,,English,,,,2,1,male
PtJ9w,15,22,mal_plain,mal_sws,1,bike,dog,dog,dog,bike,mal_plain_mal_sws,critical,3/9/2017,10:21,right,true,1983,2,1_2_2_1,word_2_word_1,near,bike,Clear_After,preschool,hanna,2012-10-24,,English,,,,2,1,male
PtJ9w,15,22,mal_plain,mal_sws,2,bike,dog,dog,dog,bike,mal_plain_mal_sws,critical,3/9/2017,10:21,right,false,2349,1,1_2_2_1,word_2_word_1,near,bike,Clear_After,preschool,hanna,2012-10-24,,English,,,,2,1,male
PtJ9w,15,22,mal_plain,mal_sws,3,bike,dog,dog,dog,bike,mal_plain_mal_sws,critical,3/9/2017,10:21,left,true,1609,1,1_2_2_1,word_2_word_1,near,dog,Clear_After,preschool,hanna,2012-10-24,,English,,,,2,1,male
PtJ9w,16,19,mal_plain,mal_sws,1,building_blocks,santa,santa,building_blocks,santa,mal_plain_mal_sws,critical,3/9/2017,10:21,right,false,2758,2,2_1_1_1,word_2_word_1,near,santa,Clear_After,preschool,hanna,2012-10-24,,English,,,,2,1,male
PtJ9w,16,19,mal_plain,mal_sws,2,building_blocks,santa,santa,building_blocks,santa,mal_plain_mal_sws,critical,3/9/2017,10:21,left,false,1872,2,2_1_1_1,word_2_word_1,near,building_blocks,Clear_After,preschool,hanna,2012-10-24,,English,,,,2,1,male
PtJ9w,16,19,mal_plain,mal_sws,3,building_blocks,santa,santa,building_blocks,santa,mal_plain_mal_sws,critical,3/9/2017,10:21,right,true,2394,2,2_1_1_1,word_2_word_1,near,santa,Clear_After,preschool,hanna,2012-10-24,,English,,,,2,1,male
PtJ9w,17,21,mal_plain,mal_sws,1,frog,sheep,frog,frog,sheep,mal_plain_mal_sws,critical,3/9/2017,10:21,right,false,1682,2,2_1_2_1,word_1_word_2,far,sheep,Clear_After,preschool,hanna,2012-10-24,,English,,,,2,1,male
PtJ9w,17,21,mal_plain,mal_sws,2,frog,sheep,frog,frog,sheep,mal_plain_mal_sws,critical,3/9/2017,10:21,left,false,2273,2,2_1_2_1,word_1_word_2,far,frog,Clear_After,preschool,hanna,2012-10-24,,English,,,,2,1,male
PtJ9w,17,21,mal_plain,mal_sws,3,frog,sheep,frog,frog,sheep,mal_plain_mal_sws,critical,3/9/2017,10:21,right,false,1761,1,2_1_2_1,word_1_word_2,far,sheep,Clear_After,preschool,hanna,2012-10-24,,English,,,,2,1,male
PtJ9w,18,18,mal_plain,mal_sws,1,raspberry,ball,ball,raspberry,ball,mal_plain_mal_sws,critical,3/9/2017,10:21,right,false,2594,1,2_1_1_1,word_2_word_1,near,ball,Clear_After,preschool,hanna,2012-10-24,,English,,,,2,1,male
PtJ9w,18,18,mal_plain,mal_sws,2,raspberry,ball,ball,raspberry,ball,mal_plain_mal_sws,critical,3/9/2017,10:21,left,false,2980,1,2_1_1_1,word_2_word_1,near,raspberry,Clear_After,preschool,hanna,2012-10-24,,English,,,,2,1,male
PtJ9w,18,18,mal_plain,mal_sws,3,raspberry,ball,ball,raspberry,ball,mal_plain_mal_sws,critical,3/9/2017,10:21,right,true,2157,2,2_1_1_1,word_2_word_1,near,ball,Clear_After,preschool,hanna,2012-10-24,,English,,,,2,1,male
PtJ9w,19,10,mal_plain,mal_sws,1,pig,tshirt,pig,pig,tshirt,mal_plain_mal_sws,critical,3/9/2017,10:21,right,false,4177,2,1_2_1_1,word_1_word_2,far,tshirt,Clear_After,preschool,hanna,2012-10-24,,English,,,,2,1,male
PtJ9w,19,10,mal_plain,mal_sws,2,pig,tshirt,pig,pig,tshirt,mal_plain_mal_sws,critical,3/9/2017,10:21,left,false,2837,1,1_2_1_1,word_1_word_2,far,pig,Clear_After,preschool,hanna,2012-10-24,,English,,,,2,1,male
PtJ9w,19,10,mal_plain,mal_sws,3,pig,tshirt,pig,pig,tshirt,mal_plain_mal_sws,critical,3/9/2017,10:21,right,false,2387,1,1_2_1_1,word_1_word_2,far,tshirt,Clear_After,preschool,hanna,2012-10-24,,English,,,,2,1,male
PtJ9w,20,1,mal_plain,mal_sws,1,baby,spoon,spoon,spoon,baby,mal_plain_mal_sws,critical,3/9/2017,10:21,right,true,2282,2,2_1_1_1,word_1_word_2,near,baby,Clear_After,preschool,hanna,2012-10-24,,English,,,,2,1,male
PtJ9w,20,1,mal_plain,mal_sws,2,baby,spoon,spoon,spoon,baby,mal_plain_mal_sws,critical,3/9/2017,10:21,right,false,1917,1,2_1_1_1,word_1_word_2,near,baby,Clear_After,preschool,hanna,2012-10-24,,English,,,,2,1,male
PtJ9w,20,1,mal_plain,mal_sws,3,baby,spoon,spoon,spoon,baby,mal_plain_mal_sws,critical,3/9/2017,10:21,left,true,1417,1,2_1_1_1,word_1_word_2,near,spoon,Clear_After,preschool,hanna,2012-10-24,,English,,,,2,1,male
PtJ9w,21,2,mal_plain,mal_sws,1,chicken,bed,chicken,bed,chicken,mal_plain_mal_sws,critical,3/9/2017,10:21,right,true,2787,2,1_2_1_1,word_1_word_2,far,chicken,Clear_After,preschool,hanna,2012-10-24,,English,,,,2,1,male
PtJ9w,21,2,mal_plain,mal_sws,2,chicken,bed,chicken,bed,chicken,mal_plain_mal_sws,critical,3/9/2017,10:21,left,true,2333,1,1_2_1_1,word_1_word_2,far,bed,Clear_After,preschool,hanna,2012-10-24,,English,,,,2,1,male
PtJ9w,21,2,mal_plain,mal_sws,3,chicken,bed,chicken,bed,chicken,mal_plain_mal_sws,critical,3/9/2017,10:21,left,false,2065,2,1_2_1_1,word_1_word_2,far,bed,Clear_After,preschool,hanna,2012-10-24,,English,,,,2,1,male
PtJ9w,22,9,mal_plain,mal_sws,1,window,pizza,window,window,pizza,mal_plain_mal_sws,critical,3/9/2017,10:21,right,false,2129,6,1_2_1_1,word_2_word_1,far,pizza,Clear_After,preschool,hanna,2012-10-24,,English,,,,2,1,male
PtJ9w,22,9,mal_plain,mal_sws,2,window,pizza,window,window,pizza,mal_plain_mal_sws,critical,3/9/2017,10:21,left,false,1679,1,1_2_1_1,word_2_word_1,far,window,Clear_After,preschool,hanna,2012-10-24,,English,,,,2,1,male
PtJ9w,22,9,mal_plain,mal_sws,3,window,pizza,window,window,pizza,mal_plain_mal_sws,critical,3/9/2017,10:21,right,false,1938,1,1_2_1_1,word_2_word_1,far,pizza,Clear_After,preschool,hanna,2012-10-24,,English,,,,2,1,male
PtJ9w,23,20,mal_plain,mal_sws,1,rabbit,jumper,jumper,jumper,rabbit,mal_plain_mal_sws,critical,3/9/2017,10:21,right,true,2143,2,1_2_2_1,word_1_word_2,near,rabbit,Clear_After,preschool,hanna,2012-10-24,,English,,,,2,1,male
PtJ9w,23,20,mal_plain,mal_sws,2,rabbit,jumper,jumper,jumper,rabbit,mal_plain_mal_sws,critical,3/9/2017,10:21,right,false,1940,1,1_2_2_1,word_1_word_2,near,rabbit,Clear_After,preschool,hanna,2012-10-24,,English,,,,2,1,male
PtJ9w,23,20,mal_plain,mal_sws,3,rabbit,jumper,jumper,jumper,rabbit,mal_plain_mal_sws,critical,3/9/2017,10:21,left,true,2161,2,1_2_2_1,word_1_word_2,near,jumper,Clear_After,preschool,hanna,2012-10-24,,English,,,,2,1,male
PtJ9w,24,5,mal_plain,mal_sws,1,orange,car,car,car,orange,mal_plain_mal_sws,critical,3/9/2017,10:21,right,true,1591,2,2_1_1_1,word_2_word_1,near,orange,Clear_After,preschool,hanna,2012-10-24,,English,,,,2,1,male
PtJ9w,24,5,mal_plain,mal_sws,2,orange,car,car,car,orange,mal_plain_mal_sws,critical,3/9/2017,10:21,right,false,3142,1,2_1_1_1,word_2_word_1,near,orange,Clear_After,preschool,hanna,2012-10-24,,English,,,,2,1,male
PtJ9w,24,5,mal_plain,mal_sws,3,orange,car,car,car,orange,mal_plain_mal_sws,critical,3/9/2017,10:21,left,true,2104,2,2_1_1_1,word_2_word_1,near,car,Clear_After,preschool,hanna,2012-10-24,,English,,,,2,1,male
PtJ9w,25,24,mal_plain,mal_sws,1,sink,fish,sink,fish,sink,mal_plain_mal_sws,critical,3/9/2017,10:21,right,true,1505,2,1_2_1_1,word_2_word_1,far,sink,Clear_After,preschool,hanna,2012-10-24,,English,,,,2,1,male
PtJ9w,25,24,mal_plain,mal_sws,2,sink,fish,sink,fish,sink,mal_plain_mal_sws,critical,3/9/2017,10:21,right,false,2784,2,1_2_1_1,word_2_word_1,far,sink,Clear_After,preschool,hanna,2012-10-24,,English,,,,2,1,male
PtJ9w,25,24,mal_plain,mal_sws,3,sink,fish,sink,fish,sink,mal_plain_mal_sws,critical,3/9/2017,10:21,left,false,1855,2,1_2_1_1,word_2_word_1,far,fish,Clear_After,preschool,hanna,2012-10-24,,English,,,,2,1,male
