subject_id,trial_number,trial_id,plain,sws,instruction_number,sound1_item,sound2_item,sound3_item,left_image,right_image,sound_gender,trial_type,date_stamp,time_stamp,side_chosen,accuracy,rt,play_counter,order,pic_position,distance,chosen_pic,test_lang,testing_loc,tester,date_of_birth,ethnicity,native_lang,other_langs,parental_occ,dev_info,birth_order,num_siblings,gender
Qa93T,1,0,mal_plain,mal_sws,1,fireman,glasses,glasses,glasses,fireman,mal_plain_mal_sws,training,4/7/2017,15:33,left,false,6368,4,1_2_2_1,word_2_word_1,near,glasses,Clear_After,lab,hanna,2015-04-02,,English,,,,,,male
Qa93T,1,0,mal_plain,mal_sws,2,fireman,glasses,glasses,glasses,fireman,mal_plain_mal_sws,training,4/7/2017,15:33,right,false,6025,7,1_2_2_1,word_2_word_1,near,fireman,Clear_After,lab,hanna,2015-04-02,,English,,,,,,male
Qa93T,1,0,mal_plain,mal_sws,3,fireman,glasses,glasses,glasses,fireman,mal_plain_mal_sws,training,4/7/2017,15:33,left,true,4188,2,1_2_2_1,word_2_word_1,near,glasses,Clear_After,lab,hanna,2015-04-02,,English,,,,,,male
Qa93T,2,6,mal_plain,mal_sws,1,peas,bird,peas,bird,peas,mal_plain_mal_sws,critical,4/7/2017,15:33,right,true,5071,2,1_2_1_1,word_1_word_2,far,peas,Clear_After,lab,hanna,2015-04-02,,English,,,,,,male
Qa93T,2,6,mal_plain,mal_sws,2,peas,bird,peas,bird,peas,mal_plain_mal_sws,critical,4/7/2017,15:33,right,false,1516,7,1_2_1_1,word_1_word_2,far,peas,Clear_After,lab,hanna,2015-04-02,,English,,,,,,male
Qa93T,2,6,mal_plain,mal_sws,3,peas,bird,peas,bird,peas,mal_plain_mal_sws,critical,4/7/2017,15:33,left,false,1978,4,1_2_1_1,word_1_word_2,far,bird,Clear_After,lab,hanna,2015-04-02,,English,,,,,,male
Qa93T,3,5,mal_plain,mal_sws,1,orange,car,orange,car,orange,mal_plain_mal_sws,critical,4/7/2017,15:33,left,false,2483,2,1_2_1_1,word_2_word_1,far,car,Clear_After,lab,hanna,2015-04-02,,English,,,,,,male
Qa93T,3,5,mal_plain,mal_sws,2,orange,car,orange,car,orange,mal_plain_mal_sws,critical,4/7/2017,15:33,right,false,2437,2,1_2_1_1,word_2_word_1,far,orange,Clear_After,lab,hanna,2015-04-02,,English,,,,,,male
Qa93T,3,5,mal_plain,mal_sws,3,orange,car,orange,car,orange,mal_plain_mal_sws,critical,4/7/2017,15:33,left,false,3525,2,1_2_1_1,word_2_word_1,far,car,Clear_After,lab,hanna,2015-04-02,,English,,,,,,male
Qa93T,4,8,mal_plain,mal_sws,1,fire_engine,wellyboots,fire_engine,fire_engine,wellyboots,mal_plain_mal_sws,critical,4/7/2017,15:33,right,false,1688,2,2_1_2_1,word_2_word_1,far,wellyboots,Clear_After,lab,hanna,2015-04-02,,English,,,,,,male
Qa93T,4,8,mal_plain,mal_sws,2,fire_engine,wellyboots,fire_engine,fire_engine,wellyboots,mal_plain_mal_sws,critical,4/7/2017,15:33,left,false,3700,2,2_1_2_1,word_2_word_1,far,fire_engine,Clear_After,lab,hanna,2015-04-02,,English,,,,,,male
Qa93T,4,8,mal_plain,mal_sws,3,fire_engine,wellyboots,fire_engine,fire_engine,wellyboots,mal_plain_mal_sws,critical,4/7/2017,15:33,right,false,3186,1,2_1_2_1,word_2_word_1,far,wellyboots,Clear_After,lab,hanna,2015-04-02,,English,,,,,,male
Qa93T,5,13,mal_plain,mal_sws,1,airplane,toothbrush,airplane,toothbrush,airplane,mal_plain_mal_sws,critical,4/7/2017,15:33,right,true,2714,4,1_2_1_1,word_1_word_2,far,airplane,Clear_After,lab,hanna,2015-04-02,,English,,,,,,male
Qa93T,5,13,mal_plain,mal_sws,2,airplane,toothbrush,airplane,toothbrush,airplane,mal_plain_mal_sws,critical,4/7/2017,15:33,right,false,2668,4,1_2_1_1,word_1_word_2,far,airplane,Clear_After,lab,hanna,2015-04-02,,English,,,,,,male
Qa93T,5,13,mal_plain,mal_sws,3,airplane,toothbrush,airplane,toothbrush,airplane,mal_plain_mal_sws,critical,4/7/2017,15:33,left,false,3491,1,1_2_1_1,word_1_word_2,far,toothbrush,Clear_After,lab,hanna,2015-04-02,,English,,,,,,male
Qa93T,6,19,mal_plain,mal_sws,1,santa,building_blocks,santa,santa,building_blocks,mal_plain_mal_sws,critical,4/7/2017,15:33,right,false,10168,2,1_2_1_1,word_1_word_2,far,building_blocks,Clear_After,lab,hanna,2015-04-02,,English,,,,,,male
Qa93T,6,19,mal_plain,mal_sws,2,santa,building_blocks,santa,santa,building_blocks,mal_plain_mal_sws,critical,4/7/2017,15:33,left,false,3979,1,1_2_1_1,word_1_word_2,far,santa,Clear_After,lab,hanna,2015-04-02,,English,,,,,,male
Qa93T,6,19,mal_plain,mal_sws,3,santa,building_blocks,santa,santa,building_blocks,mal_plain_mal_sws,critical,4/7/2017,15:33,right,false,3031,2,1_2_1_1,word_1_word_2,far,building_blocks,Clear_After,lab,hanna,2015-04-02,,English,,,,,,male
Qa93T,7,4,mal_plain,mal_sws,1,strawberry,coat,coat,strawberry,coat,mal_plain_mal_sws,critical,4/7/2017,15:33,left,true,2236,2,2_1_1_1,word_2_word_1,near,strawberry,Clear_After,lab,hanna,2015-04-02,,English,,,,,,male
Qa93T,7,4,mal_plain,mal_sws,2,strawberry,coat,coat,strawberry,coat,mal_plain_mal_sws,critical,4/7/2017,15:33,left,false,2812,1,2_1_1_1,word_2_word_1,near,strawberry,Clear_After,lab,hanna,2015-04-02,,English,,,,,,male
Qa93T,7,4,mal_plain,mal_sws,3,strawberry,coat,coat,strawberry,coat,mal_plain_mal_sws,critical,4/7/2017,15:33,right,true,3163,2,2_1_1_1,word_2_word_1,near,coat,Clear_After,lab,hanna,2015-04-02,,English,,,,,,male
Qa93T,8,9,mal_plain,mal_sws,1,pizza,window,pizza,window,pizza,mal_plain_mal_sws,critical,4/7/2017,15:33,right,true,1783,2,2_1_2_1,word_2_word_1,far,pizza,Clear_After,lab,hanna,2015-04-02,,English,,,,,,male
Qa93T,8,9,mal_plain,mal_sws,2,pizza,window,pizza,window,pizza,mal_plain_mal_sws,critical,4/7/2017,15:33,left,true,1384,1,2_1_2_1,word_2_word_1,far,window,Clear_After,lab,hanna,2015-04-02,,English,,,,,,male
Qa93T,8,9,mal_plain,mal_sws,3,pizza,window,pizza,window,pizza,mal_plain_mal_sws,critical,4/7/2017,15:33,left,false,4040,2,2_1_2_1,word_2_word_1,far,window,Clear_After,lab,hanna,2015-04-02,,English,,,,,,male
Qa93T,9,24,mal_plain,mal_sws,1,fish,sink,sink,fish,sink,mal_plain_mal_sws,critical,4/7/2017,15:33,left,true,2787,2,1_2_2_1,word_2_word_1,near,fish,Clear_After,lab,hanna,2015-04-02,,English,,,,,,male
Qa93T,9,24,mal_plain,mal_sws,2,fish,sink,sink,fish,sink,mal_plain_mal_sws,critical,4/7/2017,15:33,left,false,2946,2,1_2_2_1,word_2_word_1,near,fish,Clear_After,lab,hanna,2015-04-02,,English,,,,,,male
Qa93T,9,24,mal_plain,mal_sws,3,fish,sink,sink,fish,sink,mal_plain_mal_sws,critical,4/7/2017,15:33,right,true,3278,1,1_2_2_1,word_2_word_1,near,sink,Clear_After,lab,hanna,2015-04-02,,English,,,,,,male
Qa93T,10,15,mal_plain,mal_sws,1,slide,pencil,pencil,slide,pencil,mal_plain_mal_sws,critical,4/7/2017,15:33,left,true,3344,2,2_1_1_1,word_1_word_2,near,slide,Clear_After,lab,hanna,2015-04-02,,English,,,,,,male
Qa93T,10,15,mal_plain,mal_sws,2,slide,pencil,pencil,slide,pencil,mal_plain_mal_sws,critical,4/7/2017,15:33,left,false,3246,2,2_1_1_1,word_1_word_2,near,slide,Clear_After,lab,hanna,2015-04-02,,English,,,,,,male
Qa93T,10,15,mal_plain,mal_sws,3,slide,pencil,pencil,slide,pencil,mal_plain_mal_sws,critical,4/7/2017,15:33,right,true,991,1,2_1_1_1,word_1_word_2,near,pencil,Clear_After,lab,hanna,2015-04-02,,English,,,,,,male
Qa93T,11,23,mal_plain,mal_sws,1,teddy_bear,bath,bath,teddy_bear,bath,mal_plain_mal_sws,critical,4/7/2017,15:33,left,true,3455,2,1_2_2_1,word_2_word_1,near,teddy_bear,Clear_After,lab,hanna,2015-04-02,,English,,,,,,male
Qa93T,11,23,mal_plain,mal_sws,2,teddy_bear,bath,bath,teddy_bear,bath,mal_plain_mal_sws,critical,4/7/2017,15:33,left,false,3132,2,1_2_2_1,word_2_word_1,near,teddy_bear,Clear_After,lab,hanna,2015-04-02,,English,,,,,,male
Qa93T,11,23,mal_plain,mal_sws,3,teddy_bear,bath,bath,teddy_bear,bath,mal_plain_mal_sws,critical,4/7/2017,15:33,right,true,2931,1,1_2_2_1,word_2_word_1,near,bath,Clear_After,lab,hanna,2015-04-02,,English,,,,,,male
Qa93T,12,16,mal_plain,mal_sws,1,paintbrush,banana,banana,paintbrush,banana,mal_plain_mal_sws,critical,4/7/2017,15:33,right,false,7168,2,2_1_1_1,word_1_word_2,near,banana,Clear_After,lab,hanna,2015-04-02,,English,,,,,,male
Qa93T,12,16,mal_plain,mal_sws,2,paintbrush,banana,banana,paintbrush,banana,mal_plain_mal_sws,critical,4/7/2017,15:33,left,false,3612,2,2_1_1_1,word_1_word_2,near,paintbrush,Clear_After,lab,hanna,2015-04-02,,English,,,,,,male
Qa93T,12,16,mal_plain,mal_sws,3,paintbrush,banana,banana,paintbrush,banana,mal_plain_mal_sws,critical,4/7/2017,15:33,right,true,6380,1,2_1_1_1,word_1_word_2,near,banana,Clear_After,lab,hanna,2015-04-02,,English,,,,,,male
Qa93T,13,11,mal_plain,mal_sws,1,lorry,book,lorry,book,lorry,mal_plain_mal_sws,critical,4/7/2017,15:33,left,false,2571,2,1_2_1_1,word_1_word_2,far,book,Clear_After,lab,hanna,2015-04-02,,English,,,,,,male
Qa93T,13,11,mal_plain,mal_sws,2,lorry,book,lorry,book,lorry,mal_plain_mal_sws,critical,4/7/2017,15:33,right,false,96,1,1_2_1_1,word_1_word_2,far,lorry,Clear_After,lab,hanna,2015-04-02,,English,,,,,,male
Qa93T,13,11,mal_plain,mal_sws,3,lorry,book,lorry,book,lorry,mal_plain_mal_sws,critical,4/7/2017,15:33,left,false,5966,2,1_2_1_1,word_1_word_2,far,book,Clear_After,lab,hanna,2015-04-02,,English,,,,,,male
Qa93T,14,14,mal_plain,mal_sws,1,shoes,cheese,shoes,cheese,shoes,mal_plain_mal_sws,critical,4/7/2017,15:33,left,false,1458,2,2_1_2_1,word_1_word_2,far,cheese,Clear_After,lab,hanna,2015-04-02,,English,,,,,,male
Qa93T,14,14,mal_plain,mal_sws,2,shoes,cheese,shoes,cheese,shoes,mal_plain_mal_sws,critical,4/7/2017,15:33,right,false,2591,2,2_1_2_1,word_1_word_2,far,shoes,Clear_After,lab,hanna,2015-04-02,,English,,,,,,male
Qa93T,14,14,mal_plain,mal_sws,3,shoes,cheese,shoes,cheese,shoes,mal_plain_mal_sws,critical,4/7/2017,15:33,left,false,3322,2,2_1_2_1,word_1_word_2,far,cheese,Clear_After,lab,hanna,2015-04-02,,English,,,,,,male
Qa93T,15,22,mal_plain,mal_sws,1,bike,dog,dog,dog,bike,mal_plain_mal_sws,critical,4/7/2017,15:33,left,false,2598,2,2_1_1_1,word_2_word_1,near,dog,Clear_After,lab,hanna,2015-04-02,,English,,,,,,male
Qa93T,15,22,mal_plain,mal_sws,2,bike,dog,dog,dog,bike,mal_plain_mal_sws,critical,4/7/2017,15:33,right,false,2961,1,2_1_1_1,word_2_word_1,near,bike,Clear_After,lab,hanna,2015-04-02,,English,,,,,,male
Qa93T,15,22,mal_plain,mal_sws,3,bike,dog,dog,dog,bike,mal_plain_mal_sws,critical,4/7/2017,15:33,left,true,2226,1,2_1_1_1,word_2_word_1,near,dog,Clear_After,lab,hanna,2015-04-02,,English,,,,,,male
Qa93T,16,12,mal_plain,mal_sws,1,foot,yoghurt,foot,foot,yoghurt,mal_plain_mal_sws,critical,4/7/2017,15:33,right,false,1321,2,2_1_2_1,word_1_word_2,far,yoghurt,Clear_After,lab,hanna,2015-04-02,,English,,,,,,male
Qa93T,16,12,mal_plain,mal_sws,2,foot,yoghurt,foot,foot,yoghurt,mal_plain_mal_sws,critical,4/7/2017,15:33,right,true,3611,2,2_1_2_1,word_1_word_2,far,yoghurt,Clear_After,lab,hanna,2015-04-02,,English,,,,,,male
Qa93T,16,12,mal_plain,mal_sws,3,foot,yoghurt,foot,foot,yoghurt,mal_plain_mal_sws,critical,4/7/2017,15:33,right,false,5068,1,2_1_2_1,word_1_word_2,far,yoghurt,Clear_After,lab,hanna,2015-04-02,,English,,,,,,male
Qa93T,17,10,mal_plain,mal_sws,1,tshirt,pig,tshirt,tshirt,pig,mal_plain_mal_sws,critical,4/7/2017,15:33,right,false,1726,2,2_1_2_1,word_2_word_1,far,pig,Clear_After,lab,hanna,2015-04-02,,English,,,,,,male
Qa93T,17,10,mal_plain,mal_sws,2,tshirt,pig,tshirt,tshirt,pig,mal_plain_mal_sws,critical,4/7/2017,15:33,left,false,2818,2,2_1_2_1,word_2_word_1,far,tshirt,Clear_After,lab,hanna,2015-04-02,,English,,,,,,male
Qa93T,17,10,mal_plain,mal_sws,3,tshirt,pig,tshirt,tshirt,pig,mal_plain_mal_sws,critical,4/7/2017,15:33,right,false,1488,1,2_1_2_1,word_2_word_1,far,pig,Clear_After,lab,hanna,2015-04-02,,English,,,,,,male
Qa93T,18,7,mal_plain,mal_sws,1,horse,lolly,horse,horse,lolly,mal_plain_mal_sws,critical,4/7/2017,15:33,right,false,2190,2,1_2_1_1,word_2_word_1,far,lolly,Clear_After,lab,hanna,2015-04-02,,English,,,,,,male
Qa93T,18,7,mal_plain,mal_sws,2,horse,lolly,horse,horse,lolly,mal_plain_mal_sws,critical,4/7/2017,15:33,left,false,3427,2,1_2_1_1,word_2_word_1,far,horse,Clear_After,lab,hanna,2015-04-02,,English,,,,,,male
Qa93T,18,7,mal_plain,mal_sws,3,horse,lolly,horse,horse,lolly,mal_plain_mal_sws,critical,4/7/2017,15:33,left,true,9395,1,1_2_1_1,word_2_word_1,far,horse,Clear_After,lab,hanna,2015-04-02,,English,,,,,,male
Qa93T,19,2,mal_plain,mal_sws,1,chicken,bed,bed,bed,chicken,mal_plain_mal_sws,critical,4/7/2017,15:33,right,true,6600,2,1_2_2_1,word_1_word_2,near,chicken,Clear_After,lab,hanna,2015-04-02,,English,,,,,,male
Qa93T,19,2,mal_plain,mal_sws,2,chicken,bed,bed,bed,chicken,mal_plain_mal_sws,critical,4/7/2017,15:33,right,false,4059,1,1_2_2_1,word_1_word_2,near,chicken,Clear_After,lab,hanna,2015-04-02,,English,,,,,,male
Qa93T,19,2,mal_plain,mal_sws,3,chicken,bed,bed,bed,chicken,mal_plain_mal_sws,critical,4/7/2017,15:33,left,true,3413,2,1_2_2_1,word_1_word_2,near,bed,Clear_After,lab,hanna,2015-04-02,,English,,,,,,male
Qa93T,20,18,mal_plain,mal_sws,1,raspberry,ball,ball,raspberry,ball,mal_plain_mal_sws,critical,4/7/2017,15:33,left,true,1215,2,1_2_2_1,word_2_word_1,near,raspberry,Clear_After,lab,hanna,2015-04-02,,English,,,,,,male
Qa93T,20,18,mal_plain,mal_sws,2,raspberry,ball,ball,raspberry,ball,mal_plain_mal_sws,critical,4/7/2017,15:33,left,false,1609,2,1_2_2_1,word_2_word_1,near,raspberry,Clear_After,lab,hanna,2015-04-02,,English,,,,,,male
Qa93T,20,18,mal_plain,mal_sws,3,raspberry,ball,ball,raspberry,ball,mal_plain_mal_sws,critical,4/7/2017,15:33,right,true,1441,2,1_2_2_1,word_2_word_1,near,ball,Clear_After,lab,hanna,2015-04-02,,English,,,,,,male
Qa93T,21,3,mal_plain,mal_sws,1,nose,trousers,trousers,nose,trousers,mal_plain_mal_sws,critical,4/7/2017,15:33,right,false,1780,2,1_2_2_1,word_2_word_1,near,trousers,Clear_After,lab,hanna,2015-04-02,,English,,,,,,male
Qa93T,21,3,mal_plain,mal_sws,2,nose,trousers,trousers,nose,trousers,mal_plain_mal_sws,critical,4/7/2017,15:33,left,false,970,1,1_2_2_1,word_2_word_1,near,nose,Clear_After,lab,hanna,2015-04-02,,English,,,,,,male
Qa93T,21,3,mal_plain,mal_sws,3,nose,trousers,trousers,nose,trousers,mal_plain_mal_sws,critical,4/7/2017,15:33,right,true,2704,1,1_2_2_1,word_2_word_1,near,trousers,Clear_After,lab,hanna,2015-04-02,,English,,,,,,male
Qa93T,22,17,mal_plain,mal_sws,1,ambulance,cake,cake,ambulance,cake,mal_plain_mal_sws,critical,4/7/2017,15:33,left,true,1455,2,2_1_1_1,word_2_word_1,near,ambulance,Clear_After,lab,hanna,2015-04-02,,English,,,,,,male
Qa93T,22,17,mal_plain,mal_sws,2,ambulance,cake,cake,ambulance,cake,mal_plain_mal_sws,critical,4/7/2017,15:33,left,false,3514,1,2_1_1_1,word_2_word_1,near,ambulance,Clear_After,lab,hanna,2015-04-02,,English,,,,,,male
Qa93T,22,17,mal_plain,mal_sws,3,ambulance,cake,cake,ambulance,cake,mal_plain_mal_sws,critical,4/7/2017,15:33,right,true,2702,1,2_1_1_1,word_2_word_1,near,cake,Clear_After,lab,hanna,2015-04-02,,English,,,,,,male
Qa93T,23,1,mal_plain,mal_sws,1,spoon,baby,baby,spoon,baby,mal_plain_mal_sws,critical,4/7/2017,15:33,right,false,3536,2,2_1_1_1,word_1_word_2,near,baby,Clear_After,lab,hanna,2015-04-02,,English,,,,,,male
Qa93T,23,1,mal_plain,mal_sws,2,spoon,baby,baby,spoon,baby,mal_plain_mal_sws,critical,4/7/2017,15:33,left,false,3147,1,2_1_1_1,word_1_word_2,near,spoon,Clear_After,lab,hanna,2015-04-02,,English,,,,,,male
Qa93T,23,1,mal_plain,mal_sws,3,spoon,baby,baby,spoon,baby,mal_plain_mal_sws,critical,4/7/2017,15:33,right,true,3215,1,2_1_1_1,word_1_word_2,near,baby,Clear_After,lab,hanna,2015-04-02,,English,,,,,,male
Qa93T,24,21,mal_plain,mal_sws,1,sheep,frog,sheep,sheep,frog,mal_plain_mal_sws,critical,4/7/2017,15:33,right,false,6882,2,2_1_2_1,word_2_word_1,far,frog,Clear_After,lab,hanna,2015-04-02,,English,,,,,,male
Qa93T,24,21,mal_plain,mal_sws,2,sheep,frog,sheep,sheep,frog,mal_plain_mal_sws,critical,4/7/2017,15:33,left,false,3135,2,2_1_2_1,word_2_word_1,far,sheep,Clear_After,lab,hanna,2015-04-02,,English,,,,,,male
Qa93T,24,21,mal_plain,mal_sws,3,sheep,frog,sheep,sheep,frog,mal_plain_mal_sws,critical,4/7/2017,15:33,right,false,3168,1,2_1_2_1,word_2_word_1,far,frog,Clear_After,lab,hanna,2015-04-02,,English,,,,,,male
Qa93T,25,20,mal_plain,mal_sws,1,jumper,rabbit,jumper,rabbit,jumper,mal_plain_mal_sws,critical,4/7/2017,15:33,left,false,7506,4,1_2_1_1,word_2_word_1,far,rabbit,Clear_After,lab,hanna,2015-04-02,,English,,,,,,male
Qa93T,25,20,mal_plain,mal_sws,2,jumper,rabbit,jumper,rabbit,jumper,mal_plain_mal_sws,critical,4/7/2017,15:33,right,false,302,1,1_2_1_1,word_2_word_1,far,jumper,Clear_After,lab,hanna,2015-04-02,,English,,,,,,male
Qa93T,25,20,mal_plain,mal_sws,3,jumper,rabbit,jumper,rabbit,jumper,mal_plain_mal_sws,critical,4/7/2017,15:33,left,false,3354,2,1_2_1_1,word_2_word_1,far,rabbit,Clear_After,lab,hanna,2015-04-02,,English,,,,,,male
