subject_id,trial_number,trial_id,plain,sws,instruction_number,sound1_item,sound2_item,sound3_item,left_image,right_image,sound_gender,trial_type,date_stamp,time_stamp,side_chosen,accuracy,rt,play_counter,order,pic_position,distance,chosen_pic,test_lang,testing_loc,tester,date_of_birth,ethnicity,native_lang,other_langs,parental_occ,dev_info,birth_order,num_siblings,gender
qlXJF,1,0,fem_plain,fem_sws,1,fireman,glasses,glasses,fireman,glasses,fem_plain_fem_sws,training,3/15/2017,15:16,left,true,5628,2,1_2_2_1,word_1_word_2,near,fireman,Clear_Before,lab,barbora,2013-11-18,,,,,,,0,male
qlXJF,1,0,fem_plain,fem_sws,2,fireman,glasses,glasses,fireman,glasses,fem_plain_fem_sws,training,3/15/2017,15:16,right,true,2302,2,1_2_2_1,word_1_word_2,near,glasses,Clear_Before,lab,barbora,2013-11-18,,,,,,,0,male
qlXJF,1,0,fem_plain,fem_sws,3,fireman,glasses,glasses,fireman,glasses,fem_plain_fem_sws,training,3/15/2017,15:16,right,true,3985,2,1_2_2_1,word_1_word_2,near,glasses,Clear_Before,lab,barbora,2013-11-18,,,,,,,0,male
qlXJF,2,14,fem_plain,fem_sws,1,cheese,shoes,shoes,cheese,shoes,fem_plain_fem_sws,critical,3/15/2017,15:16,left,true,3185,2,2_1_1_1,word_1_word_2,near,cheese,Clear_Before,lab,barbora,2013-11-18,,,,,,,0,male
qlXJF,2,14,fem_plain,fem_sws,2,cheese,shoes,shoes,cheese,shoes,fem_plain_fem_sws,critical,3/15/2017,15:16,right,true,2700,2,2_1_1_1,word_1_word_2,near,shoes,Clear_Before,lab,barbora,2013-11-18,,,,,,,0,male
qlXJF,2,14,fem_plain,fem_sws,3,cheese,shoes,shoes,cheese,shoes,fem_plain_fem_sws,critical,3/15/2017,15:16,right,true,3656,2,2_1_1_1,word_1_word_2,near,shoes,Clear_Before,lab,barbora,2013-11-18,,,,,,,0,male
qlXJF,3,20,fem_plain,fem_sws,1,jumper,rabbit,jumper,jumper,rabbit,fem_plain_fem_sws,critical,3/15/2017,15:16,left,true,3179,1,2_1_2_1,word_1_word_2,far,jumper,Clear_Before,lab,barbora,2013-11-18,,,,,,,0,male
qlXJF,3,20,fem_plain,fem_sws,2,jumper,rabbit,jumper,jumper,rabbit,fem_plain_fem_sws,critical,3/15/2017,15:16,right,true,2643,2,2_1_2_1,word_1_word_2,far,rabbit,Clear_Before,lab,barbora,2013-11-18,,,,,,,0,male
qlXJF,3,20,fem_plain,fem_sws,3,jumper,rabbit,jumper,jumper,rabbit,fem_plain_fem_sws,critical,3/15/2017,15:16,right,false,2978,2,2_1_2_1,word_1_word_2,far,rabbit,Clear_Before,lab,barbora,2013-11-18,,,,,,,0,male
qlXJF,4,3,fem_plain,fem_sws,1,trousers,nose,nose,nose,trousers,fem_plain_fem_sws,critical,3/15/2017,15:16,right,true,2823,2,2_1_1_1,word_2_word_1,near,trousers,Clear_Before,lab,barbora,2013-11-18,,,,,,,0,male
qlXJF,4,3,fem_plain,fem_sws,2,trousers,nose,nose,nose,trousers,fem_plain_fem_sws,critical,3/15/2017,15:16,left,true,2582,2,2_1_1_1,word_2_word_1,near,nose,Clear_Before,lab,barbora,2013-11-18,,,,,,,0,male
qlXJF,4,3,fem_plain,fem_sws,3,trousers,nose,nose,nose,trousers,fem_plain_fem_sws,critical,3/15/2017,15:16,left,true,3454,2,2_1_1_1,word_2_word_1,near,nose,Clear_Before,lab,barbora,2013-11-18,,,,,,,0,male
qlXJF,5,18,fem_plain,fem_sws,1,ball,raspberry,raspberry,ball,raspberry,fem_plain_fem_sws,critical,3/15/2017,15:16,left,true,15611,2,2_1_1_1,word_1_word_2,near,ball,Clear_Before,lab,barbora,2013-11-18,,,,,,,0,male
qlXJF,5,18,fem_plain,fem_sws,2,ball,raspberry,raspberry,ball,raspberry,fem_plain_fem_sws,critical,3/15/2017,15:16,right,true,2854,2,2_1_1_1,word_1_word_2,near,raspberry,Clear_Before,lab,barbora,2013-11-18,,,,,,,0,male
qlXJF,5,18,fem_plain,fem_sws,3,ball,raspberry,raspberry,ball,raspberry,fem_plain_fem_sws,critical,3/15/2017,15:16,right,true,3102,2,2_1_1_1,word_1_word_2,near,raspberry,Clear_Before,lab,barbora,2013-11-18,,,,,,,0,male
qlXJF,6,4,fem_plain,fem_sws,1,coat,strawberry,strawberry,strawberry,coat,fem_plain_fem_sws,critical,3/15/2017,15:16,right,true,3049,3,1_2_2_1,word_2_word_1,near,coat,Clear_Before,lab,barbora,2013-11-18,,,,,,,0,male
qlXJF,6,4,fem_plain,fem_sws,2,coat,strawberry,strawberry,strawberry,coat,fem_plain_fem_sws,critical,3/15/2017,15:16,left,true,6084,2,1_2_2_1,word_2_word_1,near,strawberry,Clear_Before,lab,barbora,2013-11-18,,,,,,,0,male
qlXJF,6,4,fem_plain,fem_sws,3,coat,strawberry,strawberry,strawberry,coat,fem_plain_fem_sws,critical,3/15/2017,15:16,left,true,3009,1,1_2_2_1,word_2_word_1,near,strawberry,Clear_Before,lab,barbora,2013-11-18,,,,,,,0,male
qlXJF,7,13,fem_plain,fem_sws,1,toothbrush,airplane,airplane,toothbrush,airplane,fem_plain_fem_sws,critical,3/15/2017,15:16,left,true,2228,2,1_2_2_1,word_1_word_2,near,toothbrush,Clear_Before,lab,barbora,2013-11-18,,,,,,,0,male
qlXJF,7,13,fem_plain,fem_sws,2,toothbrush,airplane,airplane,toothbrush,airplane,fem_plain_fem_sws,critical,3/15/2017,15:16,right,true,2839,4,1_2_2_1,word_1_word_2,near,airplane,Clear_Before,lab,barbora,2013-11-18,,,,,,,0,male
qlXJF,7,13,fem_plain,fem_sws,3,toothbrush,airplane,airplane,toothbrush,airplane,fem_plain_fem_sws,critical,3/15/2017,15:16,right,true,4622,4,1_2_2_1,word_1_word_2,near,airplane,Clear_Before,lab,barbora,2013-11-18,,,,,,,0,male
qlXJF,8,11,fem_plain,fem_sws,1,book,lorry,book,book,lorry,fem_plain_fem_sws,critical,3/15/2017,15:16,left,true,3297,2,1_2_1_1,word_1_word_2,far,book,Clear_Before,lab,barbora,2013-11-18,,,,,,,0,male
qlXJF,8,11,fem_plain,fem_sws,2,book,lorry,book,book,lorry,fem_plain_fem_sws,critical,3/15/2017,15:16,right,true,2628,2,1_2_1_1,word_1_word_2,far,lorry,Clear_Before,lab,barbora,2013-11-18,,,,,,,0,male
qlXJF,8,11,fem_plain,fem_sws,3,book,lorry,book,book,lorry,fem_plain_fem_sws,critical,3/15/2017,15:16,left,true,5952,2,1_2_1_1,word_1_word_2,far,book,Clear_Before,lab,barbora,2013-11-18,,,,,,,0,male
qlXJF,9,22,fem_plain,fem_sws,1,bike,dog,bike,bike,dog,fem_plain_fem_sws,critical,3/15/2017,15:16,left,true,2974,2,2_1_2_1,word_1_word_2,far,bike,Clear_Before,lab,barbora,2013-11-18,,,,,,,0,male
qlXJF,9,22,fem_plain,fem_sws,2,bike,dog,bike,bike,dog,fem_plain_fem_sws,critical,3/15/2017,15:16,right,true,2848,2,2_1_2_1,word_1_word_2,far,dog,Clear_Before,lab,barbora,2013-11-18,,,,,,,0,male
qlXJF,9,22,fem_plain,fem_sws,3,bike,dog,bike,bike,dog,fem_plain_fem_sws,critical,3/15/2017,15:16,left,true,3443,2,2_1_2_1,word_1_word_2,far,bike,Clear_Before,lab,barbora,2013-11-18,,,,,,,0,male
qlXJF,10,19,fem_plain,fem_sws,1,building_blocks,santa,building_blocks,santa,building_blocks,fem_plain_fem_sws,critical,3/15/2017,15:16,right,true,2823,2,1_2_1_1,word_1_word_2,far,building_blocks,Clear_Before,lab,barbora,2013-11-18,,,,,,,0,male
qlXJF,10,19,fem_plain,fem_sws,2,building_blocks,santa,building_blocks,santa,building_blocks,fem_plain_fem_sws,critical,3/15/2017,15:16,left,true,3522,2,1_2_1_1,word_1_word_2,far,santa,Clear_Before,lab,barbora,2013-11-18,,,,,,,0,male
qlXJF,10,19,fem_plain,fem_sws,3,building_blocks,santa,building_blocks,santa,building_blocks,fem_plain_fem_sws,critical,3/15/2017,15:16,right,true,3173,4,1_2_1_1,word_1_word_2,far,building_blocks,Clear_Before,lab,barbora,2013-11-18,,,,,,,0,male
qlXJF,11,8,fem_plain,fem_sws,1,fire_engine,wellyboots,fire_engine,wellyboots,fire_engine,fem_plain_fem_sws,critical,3/15/2017,15:16,right,true,3511,2,2_1_2_1,word_1_word_2,far,fire_engine,Clear_Before,lab,barbora,2013-11-18,,,,,,,0,male
qlXJF,11,8,fem_plain,fem_sws,2,fire_engine,wellyboots,fire_engine,wellyboots,fire_engine,fem_plain_fem_sws,critical,3/15/2017,15:16,left,true,5847,2,2_1_2_1,word_1_word_2,far,wellyboots,Clear_Before,lab,barbora,2013-11-18,,,,,,,0,male
qlXJF,11,8,fem_plain,fem_sws,3,fire_engine,wellyboots,fire_engine,wellyboots,fire_engine,fem_plain_fem_sws,critical,3/15/2017,15:16,right,true,3946,2,2_1_2_1,word_1_word_2,far,fire_engine,Clear_Before,lab,barbora,2013-11-18,,,,,,,0,male
qlXJF,12,24,fem_plain,fem_sws,1,fish,sink,fish,fish,sink,fem_plain_fem_sws,critical,3/15/2017,15:16,left,true,2590,2,1_2_1_1,word_2_word_1,far,fish,Clear_Before,lab,barbora,2013-11-18,,,,,,,0,male
qlXJF,12,24,fem_plain,fem_sws,2,fish,sink,fish,fish,sink,fem_plain_fem_sws,critical,3/15/2017,15:16,right,true,2924,2,1_2_1_1,word_2_word_1,far,sink,Clear_Before,lab,barbora,2013-11-18,,,,,,,0,male
qlXJF,12,24,fem_plain,fem_sws,3,fish,sink,fish,fish,sink,fem_plain_fem_sws,critical,3/15/2017,15:16,left,true,2725,2,1_2_1_1,word_2_word_1,far,fish,Clear_Before,lab,barbora,2013-11-18,,,,,,,0,male
qlXJF,13,23,fem_plain,fem_sws,1,bath,teddy_bear,bath,bath,teddy_bear,fem_plain_fem_sws,critical,3/15/2017,15:16,left,true,3653,2,1_2_1_1,word_1_word_2,far,bath,Clear_Before,lab,barbora,2013-11-18,,,,,,,0,male
qlXJF,13,23,fem_plain,fem_sws,2,bath,teddy_bear,bath,bath,teddy_bear,fem_plain_fem_sws,critical,3/15/2017,15:16,right,true,2945,2,1_2_1_1,word_1_word_2,far,teddy_bear,Clear_Before,lab,barbora,2013-11-18,,,,,,,0,male
qlXJF,13,23,fem_plain,fem_sws,3,bath,teddy_bear,bath,bath,teddy_bear,fem_plain_fem_sws,critical,3/15/2017,15:16,left,true,3380,2,1_2_1_1,word_1_word_2,far,bath,Clear_Before,lab,barbora,2013-11-18,,,,,,,0,male
qlXJF,14,10,fem_plain,fem_sws,1,pig,tshirt,pig,tshirt,pig,fem_plain_fem_sws,critical,3/15/2017,15:16,right,true,2505,2,2_1_2_1,word_2_word_1,far,pig,Clear_Before,lab,barbora,2013-11-18,,,,,,,0,male
qlXJF,14,10,fem_plain,fem_sws,2,pig,tshirt,pig,tshirt,pig,fem_plain_fem_sws,critical,3/15/2017,15:16,left,true,2869,2,2_1_2_1,word_2_word_1,far,tshirt,Clear_Before,lab,barbora,2013-11-18,,,,,,,0,male
qlXJF,14,10,fem_plain,fem_sws,3,pig,tshirt,pig,tshirt,pig,fem_plain_fem_sws,critical,3/15/2017,15:16,right,true,2642,2,2_1_2_1,word_2_word_1,far,pig,Clear_Before,lab,barbora,2013-11-18,,,,,,,0,male
qlXJF,15,5,fem_plain,fem_sws,1,orange,car,car,car,orange,fem_plain_fem_sws,critical,3/15/2017,15:16,right,true,3225,2,1_2_2_1,word_2_word_1,near,orange,Clear_Before,lab,barbora,2013-11-18,,,,,,,0,male
qlXJF,15,5,fem_plain,fem_sws,2,orange,car,car,car,orange,fem_plain_fem_sws,critical,3/15/2017,15:16,left,true,2324,2,1_2_2_1,word_2_word_1,near,car,Clear_Before,lab,barbora,2013-11-18,,,,,,,0,male
qlXJF,15,5,fem_plain,fem_sws,3,orange,car,car,car,orange,fem_plain_fem_sws,critical,3/15/2017,15:16,left,true,2746,2,1_2_2_1,word_2_word_1,near,car,Clear_Before,lab,barbora,2013-11-18,,,,,,,0,male
qlXJF,16,7,fem_plain,fem_sws,1,lolly,horse,horse,horse,lolly,fem_plain_fem_sws,critical,3/15/2017,15:16,right,true,7523,2,2_1_1_1,word_2_word_1,near,lolly,Clear_Before,lab,barbora,2013-11-18,,,,,,,0,male
qlXJF,16,7,fem_plain,fem_sws,2,lolly,horse,horse,horse,lolly,fem_plain_fem_sws,critical,3/15/2017,15:16,left,true,161,2,2_1_1_1,word_2_word_1,near,horse,Clear_Before,lab,barbora,2013-11-18,,,,,,,0,male
qlXJF,16,7,fem_plain,fem_sws,3,lolly,horse,horse,horse,lolly,fem_plain_fem_sws,critical,3/15/2017,15:16,left,true,2684,2,2_1_1_1,word_2_word_1,near,horse,Clear_Before,lab,barbora,2013-11-18,,,,,,,0,male
qlXJF,17,1,fem_plain,fem_sws,1,spoon,baby,spoon,spoon,baby,fem_plain_fem_sws,critical,3/15/2017,15:16,left,true,3360,2,1_2_1_1,word_1_word_2,far,spoon,Clear_Before,lab,barbora,2013-11-18,,,,,,,0,male
qlXJF,17,1,fem_plain,fem_sws,2,spoon,baby,spoon,spoon,baby,fem_plain_fem_sws,critical,3/15/2017,15:16,right,true,2781,2,1_2_1_1,word_1_word_2,far,baby,Clear_Before,lab,barbora,2013-11-18,,,,,,,0,male
qlXJF,17,1,fem_plain,fem_sws,3,spoon,baby,spoon,spoon,baby,fem_plain_fem_sws,critical,3/15/2017,15:16,left,true,3382,2,1_2_1_1,word_1_word_2,far,spoon,Clear_Before,lab,barbora,2013-11-18,,,,,,,0,male
qlXJF,18,15,fem_plain,fem_sws,1,pencil,slide,slide,slide,pencil,fem_plain_fem_sws,critical,3/15/2017,15:16,left,false,4989,2,1_2_2_1,word_1_word_2,near,slide,Clear_Before,lab,barbora,2013-11-18,,,,,,,0,male
qlXJF,18,15,fem_plain,fem_sws,2,pencil,slide,slide,slide,pencil,fem_plain_fem_sws,critical,3/15/2017,15:16,right,false,2387,2,1_2_2_1,word_1_word_2,near,pencil,Clear_Before,lab,barbora,2013-11-18,,,,,,,0,male
qlXJF,18,15,fem_plain,fem_sws,3,pencil,slide,slide,slide,pencil,fem_plain_fem_sws,critical,3/15/2017,15:16,left,true,2625,2,1_2_2_1,word_1_word_2,near,slide,Clear_Before,lab,barbora,2013-11-18,,,,,,,0,male
qlXJF,19,2,fem_plain,fem_sws,1,chicken,bed,chicken,bed,chicken,fem_plain_fem_sws,critical,3/15/2017,15:16,right,true,3338,2,2_1_2_1,word_1_word_2,far,chicken,Clear_Before,lab,barbora,2013-11-18,,,,,,,0,male
qlXJF,19,2,fem_plain,fem_sws,2,chicken,bed,chicken,bed,chicken,fem_plain_fem_sws,critical,3/15/2017,15:16,right,false,3685,2,2_1_2_1,word_1_word_2,far,chicken,Clear_Before,lab,barbora,2013-11-18,,,,,,,0,male
qlXJF,19,2,fem_plain,fem_sws,3,chicken,bed,chicken,bed,chicken,fem_plain_fem_sws,critical,3/15/2017,15:16,left,false,3188,2,2_1_2_1,word_1_word_2,far,bed,Clear_Before,lab,barbora,2013-11-18,,,,,,,0,male
qlXJF,20,12,fem_plain,fem_sws,1,yoghurt,foot,foot,yoghurt,foot,fem_plain_fem_sws,critical,3/15/2017,15:16,left,true,5001,2,2_1_1_1,word_2_word_1,near,yoghurt,Clear_Before,lab,barbora,2013-11-18,,,,,,,0,male
qlXJF,20,12,fem_plain,fem_sws,2,yoghurt,foot,foot,yoghurt,foot,fem_plain_fem_sws,critical,3/15/2017,15:16,left,false,3201,2,2_1_1_1,word_2_word_1,near,yoghurt,Clear_Before,lab,barbora,2013-11-18,,,,,,,0,male
qlXJF,20,12,fem_plain,fem_sws,3,yoghurt,foot,foot,yoghurt,foot,fem_plain_fem_sws,critical,3/15/2017,15:16,right,true,2185,2,2_1_1_1,word_2_word_1,near,foot,Clear_Before,lab,barbora,2013-11-18,,,,,,,0,male
qlXJF,21,6,fem_plain,fem_sws,1,peas,bird,bird,peas,bird,fem_plain_fem_sws,critical,3/15/2017,15:16,right,false,3285,2,2_1_1_1,word_2_word_1,near,bird,Clear_Before,lab,barbora,2013-11-18,,,,,,,0,male
qlXJF,21,6,fem_plain,fem_sws,2,peas,bird,bird,peas,bird,fem_plain_fem_sws,critical,3/15/2017,15:16,left,false,2978,2,2_1_1_1,word_2_word_1,near,peas,Clear_Before,lab,barbora,2013-11-18,,,,,,,0,male
qlXJF,21,6,fem_plain,fem_sws,3,peas,bird,bird,peas,bird,fem_plain_fem_sws,critical,3/15/2017,15:16,right,true,2379,2,2_1_1_1,word_2_word_1,near,bird,Clear_Before,lab,barbora,2013-11-18,,,,,,,0,male
qlXJF,22,21,fem_plain,fem_sws,1,sheep,frog,sheep,frog,sheep,fem_plain_fem_sws,critical,3/15/2017,15:16,right,true,3067,2,2_1_2_1,word_1_word_2,far,sheep,Clear_Before,lab,barbora,2013-11-18,,,,,,,0,male
qlXJF,22,21,fem_plain,fem_sws,2,sheep,frog,sheep,frog,sheep,fem_plain_fem_sws,critical,3/15/2017,15:16,right,false,2561,2,2_1_2_1,word_1_word_2,far,sheep,Clear_Before,lab,barbora,2013-11-18,,,,,,,0,male
qlXJF,22,21,fem_plain,fem_sws,3,sheep,frog,sheep,frog,sheep,fem_plain_fem_sws,critical,3/15/2017,15:16,left,false,3054,2,2_1_2_1,word_1_word_2,far,frog,Clear_Before,lab,barbora,2013-11-18,,,,,,,0,male
qlXJF,23,9,fem_plain,fem_sws,1,pizza,window,pizza,pizza,window,fem_plain_fem_sws,critical,3/15/2017,15:16,left,true,3138,1,1_2_1_1,word_1_word_2,far,pizza,Clear_Before,lab,barbora,2013-11-18,,,,,,,0,male
qlXJF,23,9,fem_plain,fem_sws,2,pizza,window,pizza,pizza,window,fem_plain_fem_sws,critical,3/15/2017,15:16,left,false,2718,3,1_2_1_1,word_1_word_2,far,pizza,Clear_Before,lab,barbora,2013-11-18,,,,,,,0,male
qlXJF,23,9,fem_plain,fem_sws,3,pizza,window,pizza,pizza,window,fem_plain_fem_sws,critical,3/15/2017,15:16,right,false,1948,1,1_2_1_1,word_1_word_2,far,window,Clear_Before,lab,barbora,2013-11-18,,,,,,,0,male
qlXJF,24,17,fem_plain,fem_sws,1,cake,ambulance,ambulance,cake,ambulance,fem_plain_fem_sws,critical,3/15/2017,15:16,right,false,2755,2,1_2_2_1,word_1_word_2,near,ambulance,Clear_Before,lab,barbora,2013-11-18,,,,,,,0,male
qlXJF,24,17,fem_plain,fem_sws,2,cake,ambulance,ambulance,cake,ambulance,fem_plain_fem_sws,critical,3/15/2017,15:16,left,false,4886,2,1_2_2_1,word_1_word_2,near,cake,Clear_Before,lab,barbora,2013-11-18,,,,,,,0,male
qlXJF,24,17,fem_plain,fem_sws,3,cake,ambulance,ambulance,cake,ambulance,fem_plain_fem_sws,critical,3/15/2017,15:16,right,true,3084,2,1_2_2_1,word_1_word_2,near,ambulance,Clear_Before,lab,barbora,2013-11-18,,,,,,,0,male
qlXJF,25,16,fem_plain,fem_sws,1,banana,paintbrush,banana,banana,paintbrush,fem_plain_fem_sws,critical,3/15/2017,15:16,left,true,3394,2,1_2_1_1,word_2_word_1,far,banana,Clear_Before,lab,barbora,2013-11-18,,,,,,,0,male
qlXJF,25,16,fem_plain,fem_sws,2,banana,paintbrush,banana,banana,paintbrush,fem_plain_fem_sws,critical,3/15/2017,15:16,left,false,2645,2,1_2_1_1,word_2_word_1,far,banana,Clear_Before,lab,barbora,2013-11-18,,,,,,,0,male
qlXJF,25,16,fem_plain,fem_sws,3,banana,paintbrush,banana,banana,paintbrush,fem_plain_fem_sws,critical,3/15/2017,15:16,right,false,4216,2,1_2_1_1,word_2_word_1,far,paintbrush,Clear_Before,lab,barbora,2013-11-18,,,,,,,0,male
