subject_id,trial_number,trial_id,plain,sws,instruction_number,sound1_item,sound2_item,sound3_item,left_image,right_image,sound_gender,trial_type,date_stamp,time_stamp,side_chosen,accuracy,rt,play_counter,order,pic_position,distance,chosen_pic,test_lang,testing_loc,tester,date_of_birth,ethnicity,native_lang,other_langs,parental_occ,dev_info,birth_order,num_siblings,gender
smIVx,1,0,fem_plain,mal_sws,1,glasses,fireman,fireman,fireman,glasses,fem_plain_mal_sws,training,3/22/2017,13:42,right,true,3970,7,2_1_1_1,word_1_word_2,near,glasses,Clear_Before,preschool,hanna,2013-02-20,,English,,,,,,male
smIVx,1,0,fem_plain,mal_sws,2,glasses,fireman,fireman,fireman,glasses,fem_plain_mal_sws,training,3/22/2017,13:42,left,true,2340,4,2_1_1_1,word_1_word_2,near,fireman,Clear_Before,preschool,hanna,2013-02-20,,English,,,,,,male
smIVx,1,0,fem_plain,mal_sws,3,glasses,fireman,fireman,fireman,glasses,fem_plain_mal_sws,training,3/22/2017,13:42,left,true,8966,4,2_1_1_1,word_1_word_2,near,fireman,Clear_Before,preschool,hanna,2013-02-20,,English,,,,,,male
smIVx,2,16,fem_plain,mal_sws,1,paintbrush,banana,banana,paintbrush,banana,fem_plain_mal_sws,critical,3/22/2017,13:42,left,true,4636,1,2_1_1_1,word_1_word_2,near,paintbrush,Clear_Before,preschool,hanna,2013-02-20,,English,,,,,,male
smIVx,2,16,fem_plain,mal_sws,2,paintbrush,banana,banana,paintbrush,banana,fem_plain_mal_sws,critical,3/22/2017,13:42,right,true,573,2,2_1_1_1,word_1_word_2,near,banana,Clear_Before,preschool,hanna,2013-02-20,,English,,,,,,male
smIVx,2,16,fem_plain,mal_sws,3,paintbrush,banana,banana,paintbrush,banana,fem_plain_mal_sws,critical,3/22/2017,13:42,right,true,11483,2,2_1_1_1,word_1_word_2,near,banana,Clear_Before,preschool,hanna,2013-02-20,,English,,,,,,male
smIVx,3,17,fem_plain,mal_sws,1,cake,ambulance,cake,cake,ambulance,fem_plain_mal_sws,critical,3/22/2017,13:42,left,true,3323,1,1_2_1_1,word_1_word_2,far,cake,Clear_Before,preschool,hanna,2013-02-20,,English,,,,,,male
smIVx,3,17,fem_plain,mal_sws,2,cake,ambulance,cake,cake,ambulance,fem_plain_mal_sws,critical,3/22/2017,13:42,right,true,1138,2,1_2_1_1,word_1_word_2,far,ambulance,Clear_Before,preschool,hanna,2013-02-20,,English,,,,,,male
smIVx,3,17,fem_plain,mal_sws,3,cake,ambulance,cake,cake,ambulance,fem_plain_mal_sws,critical,3/22/2017,13:42,right,false,7883,5,1_2_1_1,word_1_word_2,far,ambulance,Clear_Before,preschool,hanna,2013-02-20,,English,,,,,,male
smIVx,4,7,fem_plain,mal_sws,1,horse,lolly,horse,horse,lolly,fem_plain_mal_sws,critical,3/22/2017,13:42,left,true,2760,1,1_2_1_1,word_2_word_1,far,horse,Clear_Before,preschool,hanna,2013-02-20,,English,,,,,,male
smIVx,4,7,fem_plain,mal_sws,2,horse,lolly,horse,horse,lolly,fem_plain_mal_sws,critical,3/22/2017,13:42,right,true,3423,1,1_2_1_1,word_2_word_1,far,lolly,Clear_Before,preschool,hanna,2013-02-20,,English,,,,,,male
smIVx,4,7,fem_plain,mal_sws,3,horse,lolly,horse,horse,lolly,fem_plain_mal_sws,critical,3/22/2017,13:42,right,false,9356,3,1_2_1_1,word_2_word_1,far,lolly,Clear_Before,preschool,hanna,2013-02-20,,English,,,,,,male
smIVx,5,19,fem_plain,mal_sws,1,building_blocks,santa,santa,building_blocks,santa,fem_plain_mal_sws,critical,3/22/2017,13:42,left,true,2657,2,1_2_2_1,word_2_word_1,near,building_blocks,Clear_Before,preschool,hanna,2013-02-20,,English,,,,,,male
smIVx,5,19,fem_plain,mal_sws,2,building_blocks,santa,santa,building_blocks,santa,fem_plain_mal_sws,critical,3/22/2017,13:42,right,true,3287,1,1_2_2_1,word_2_word_1,near,santa,Clear_Before,preschool,hanna,2013-02-20,,English,,,,,,male
smIVx,5,19,fem_plain,mal_sws,3,building_blocks,santa,santa,building_blocks,santa,fem_plain_mal_sws,critical,3/22/2017,13:42,right,true,5120,4,1_2_2_1,word_2_word_1,near,santa,Clear_Before,preschool,hanna,2013-02-20,,English,,,,,,male
smIVx,6,5,fem_plain,mal_sws,1,orange,car,orange,car,orange,fem_plain_mal_sws,critical,3/22/2017,13:42,right,true,3565,1,1_2_1_1,word_2_word_1,far,orange,Clear_Before,preschool,hanna,2013-02-20,,English,,,,,,male
smIVx,6,5,fem_plain,mal_sws,2,orange,car,orange,car,orange,fem_plain_mal_sws,critical,3/22/2017,13:42,left,true,2055,1,1_2_1_1,word_2_word_1,far,car,Clear_Before,preschool,hanna,2013-02-20,,English,,,,,,male
smIVx,6,5,fem_plain,mal_sws,3,orange,car,orange,car,orange,fem_plain_mal_sws,critical,3/22/2017,13:42,right,true,8129,1,1_2_1_1,word_2_word_1,far,orange,Clear_Before,preschool,hanna,2013-02-20,,English,,,,,,male
smIVx,7,20,fem_plain,mal_sws,1,jumper,rabbit,jumper,rabbit,jumper,fem_plain_mal_sws,critical,3/22/2017,13:42,right,true,2432,1,1_2_1_1,word_2_word_1,far,jumper,Clear_Before,preschool,hanna,2013-02-20,,English,,,,,,male
smIVx,7,20,fem_plain,mal_sws,2,jumper,rabbit,jumper,rabbit,jumper,fem_plain_mal_sws,critical,3/22/2017,13:42,left,true,1196,1,1_2_1_1,word_2_word_1,far,rabbit,Clear_Before,preschool,hanna,2013-02-20,,English,,,,,,male
smIVx,7,20,fem_plain,mal_sws,3,jumper,rabbit,jumper,rabbit,jumper,fem_plain_mal_sws,critical,3/22/2017,13:42,right,true,7066,2,1_2_1_1,word_2_word_1,far,jumper,Clear_Before,preschool,hanna,2013-02-20,,English,,,,,,male
smIVx,8,10,fem_plain,mal_sws,1,pig,tshirt,pig,tshirt,pig,fem_plain_mal_sws,critical,3/22/2017,13:42,right,true,2530,2,2_1_2_1,word_2_word_1,far,pig,Clear_Before,preschool,hanna,2013-02-20,,English,,,,,,male
smIVx,8,10,fem_plain,mal_sws,2,pig,tshirt,pig,tshirt,pig,fem_plain_mal_sws,critical,3/22/2017,13:42,left,true,3591,1,2_1_2_1,word_2_word_1,far,tshirt,Clear_Before,preschool,hanna,2013-02-20,,English,,,,,,male
smIVx,8,10,fem_plain,mal_sws,3,pig,tshirt,pig,tshirt,pig,fem_plain_mal_sws,critical,3/22/2017,13:42,right,true,5917,2,2_1_2_1,word_2_word_1,far,pig,Clear_Before,preschool,hanna,2013-02-20,,English,,,,,,male
smIVx,9,2,fem_plain,mal_sws,1,chicken,bed,bed,bed,chicken,fem_plain_mal_sws,critical,3/22/2017,13:42,right,true,3143,5,1_2_2_1,word_1_word_2,near,chicken,Clear_Before,preschool,hanna,2013-02-20,,English,,,,,,male
smIVx,9,2,fem_plain,mal_sws,2,chicken,bed,bed,bed,chicken,fem_plain_mal_sws,critical,3/22/2017,13:42,left,true,3097,1,1_2_2_1,word_1_word_2,near,bed,Clear_Before,preschool,hanna,2013-02-20,,English,,,,,,male
smIVx,9,2,fem_plain,mal_sws,3,chicken,bed,bed,bed,chicken,fem_plain_mal_sws,critical,3/22/2017,13:42,right,false,8171,3,1_2_2_1,word_1_word_2,near,chicken,Clear_Before,preschool,hanna,2013-02-20,,English,,,,,,male
smIVx,10,13,fem_plain,mal_sws,1,airplane,toothbrush,toothbrush,airplane,toothbrush,fem_plain_mal_sws,critical,3/22/2017,13:42,left,true,2413,2,1_2_2_1,word_2_word_1,near,airplane,Clear_Before,preschool,hanna,2013-02-20,,English,,,,,,male
smIVx,10,13,fem_plain,mal_sws,2,airplane,toothbrush,toothbrush,airplane,toothbrush,fem_plain_mal_sws,critical,3/22/2017,13:42,right,true,1509,1,1_2_2_1,word_2_word_1,near,toothbrush,Clear_Before,preschool,hanna,2013-02-20,,English,,,,,,male
smIVx,10,13,fem_plain,mal_sws,3,airplane,toothbrush,toothbrush,airplane,toothbrush,fem_plain_mal_sws,critical,3/22/2017,13:42,right,true,2715,2,1_2_2_1,word_2_word_1,near,toothbrush,Clear_Before,preschool,hanna,2013-02-20,,English,,,,,,male
smIVx,11,3,fem_plain,mal_sws,1,trousers,nose,trousers,trousers,nose,fem_plain_mal_sws,critical,3/22/2017,13:42,left,true,2480,2,2_1_2_1,word_1_word_2,far,trousers,Clear_Before,preschool,hanna,2013-02-20,,English,,,,,,male
smIVx,11,3,fem_plain,mal_sws,2,trousers,nose,trousers,trousers,nose,fem_plain_mal_sws,critical,3/22/2017,13:42,right,true,941,1,2_1_2_1,word_1_word_2,far,nose,Clear_Before,preschool,hanna,2013-02-20,,English,,,,,,male
smIVx,11,3,fem_plain,mal_sws,3,trousers,nose,trousers,trousers,nose,fem_plain_mal_sws,critical,3/22/2017,13:42,right,false,2665,2,2_1_2_1,word_1_word_2,far,nose,Clear_Before,preschool,hanna,2013-02-20,,English,,,,,,male
smIVx,12,21,fem_plain,mal_sws,1,sheep,frog,sheep,frog,sheep,fem_plain_mal_sws,critical,3/22/2017,13:42,right,true,2233,2,2_1_2_1,word_1_word_2,far,sheep,Clear_Before,preschool,hanna,2013-02-20,,English,,,,,,male
smIVx,12,21,fem_plain,mal_sws,2,sheep,frog,sheep,frog,sheep,fem_plain_mal_sws,critical,3/22/2017,13:42,left,true,3147,1,2_1_2_1,word_1_word_2,far,frog,Clear_Before,preschool,hanna,2013-02-20,,English,,,,,,male
smIVx,12,21,fem_plain,mal_sws,3,sheep,frog,sheep,frog,sheep,fem_plain_mal_sws,critical,3/22/2017,13:42,right,true,1136,2,2_1_2_1,word_1_word_2,far,sheep,Clear_Before,preschool,hanna,2013-02-20,,English,,,,,,male
smIVx,13,4,fem_plain,mal_sws,1,strawberry,coat,strawberry,strawberry,coat,fem_plain_mal_sws,critical,3/22/2017,13:42,left,true,2576,2,1_2_1_1,word_2_word_1,far,strawberry,Clear_Before,preschool,hanna,2013-02-20,,English,,,,,,male
smIVx,13,4,fem_plain,mal_sws,2,strawberry,coat,strawberry,strawberry,coat,fem_plain_mal_sws,critical,3/22/2017,13:42,right,true,2498,2,1_2_1_1,word_2_word_1,far,coat,Clear_Before,preschool,hanna,2013-02-20,,English,,,,,,male
smIVx,13,4,fem_plain,mal_sws,3,strawberry,coat,strawberry,strawberry,coat,fem_plain_mal_sws,critical,3/22/2017,13:42,left,true,9029,1,1_2_1_1,word_2_word_1,far,strawberry,Clear_Before,preschool,hanna,2013-02-20,,English,,,,,,male
smIVx,14,15,fem_plain,mal_sws,1,pencil,slide,slide,pencil,slide,fem_plain_mal_sws,critical,3/22/2017,13:42,left,true,2179,2,1_2_2_1,word_2_word_1,near,pencil,Clear_Before,preschool,hanna,2013-02-20,,English,,,,,,male
smIVx,14,15,fem_plain,mal_sws,2,pencil,slide,slide,pencil,slide,fem_plain_mal_sws,critical,3/22/2017,13:42,right,true,2366,1,1_2_2_1,word_2_word_1,near,slide,Clear_Before,preschool,hanna,2013-02-20,,English,,,,,,male
smIVx,14,15,fem_plain,mal_sws,3,pencil,slide,slide,pencil,slide,fem_plain_mal_sws,critical,3/22/2017,13:42,left,false,6757,1,1_2_2_1,word_2_word_1,near,pencil,Clear_Before,preschool,hanna,2013-02-20,,English,,,,,,male
smIVx,15,22,fem_plain,mal_sws,1,bike,dog,dog,bike,dog,fem_plain_mal_sws,critical,3/22/2017,13:42,left,true,2536,2,1_2_2_1,word_1_word_2,near,bike,Clear_Before,preschool,hanna,2013-02-20,,English,,,,,,male
smIVx,15,22,fem_plain,mal_sws,2,bike,dog,dog,bike,dog,fem_plain_mal_sws,critical,3/22/2017,13:42,right,true,1490,1,1_2_2_1,word_1_word_2,near,dog,Clear_Before,preschool,hanna,2013-02-20,,English,,,,,,male
smIVx,15,22,fem_plain,mal_sws,3,bike,dog,dog,bike,dog,fem_plain_mal_sws,critical,3/22/2017,13:42,left,false,1324,2,1_2_2_1,word_1_word_2,near,bike,Clear_Before,preschool,hanna,2013-02-20,,English,,,,,,male
smIVx,16,23,fem_plain,mal_sws,1,teddy_bear,bath,bath,teddy_bear,bath,fem_plain_mal_sws,critical,3/22/2017,13:42,left,true,7059,2,2_1_1_1,word_2_word_1,near,teddy_bear,Clear_Before,preschool,hanna,2013-02-20,,English,,,,,,male
smIVx,16,23,fem_plain,mal_sws,2,teddy_bear,bath,bath,teddy_bear,bath,fem_plain_mal_sws,critical,3/22/2017,13:42,right,true,734,1,2_1_1_1,word_2_word_1,near,bath,Clear_Before,preschool,hanna,2013-02-20,,English,,,,,,male
smIVx,16,23,fem_plain,mal_sws,3,teddy_bear,bath,bath,teddy_bear,bath,fem_plain_mal_sws,critical,3/22/2017,13:42,left,false,2497,2,2_1_1_1,word_2_word_1,near,teddy_bear,Clear_Before,preschool,hanna,2013-02-20,,English,,,,,,male
smIVx,17,18,fem_plain,mal_sws,1,ball,raspberry,raspberry,raspberry,ball,fem_plain_mal_sws,critical,3/22/2017,13:42,right,true,2859,2,1_2_2_1,word_2_word_1,near,ball,Clear_Before,preschool,hanna,2013-02-20,,English,,,,,,male
smIVx,17,18,fem_plain,mal_sws,2,ball,raspberry,raspberry,raspberry,ball,fem_plain_mal_sws,critical,3/22/2017,13:42,left,true,6901,1,1_2_2_1,word_2_word_1,near,raspberry,Clear_Before,preschool,hanna,2013-02-20,,English,,,,,,male
smIVx,17,18,fem_plain,mal_sws,3,ball,raspberry,raspberry,raspberry,ball,fem_plain_mal_sws,critical,3/22/2017,13:42,left,true,2246,4,1_2_2_1,word_2_word_1,near,raspberry,Clear_Before,preschool,hanna,2013-02-20,,English,,,,,,male
smIVx,18,8,fem_plain,mal_sws,1,fire_engine,wellyboots,wellyboots,fire_engine,wellyboots,fem_plain_mal_sws,critical,3/22/2017,13:42,left,true,2274,4,2_1_1_1,word_2_word_1,near,fire_engine,Clear_Before,preschool,hanna,2013-02-20,,English,,,,,,male
smIVx,18,8,fem_plain,mal_sws,2,fire_engine,wellyboots,wellyboots,fire_engine,wellyboots,fem_plain_mal_sws,critical,3/22/2017,13:42,left,false,3132,2,2_1_1_1,word_2_word_1,near,fire_engine,Clear_Before,preschool,hanna,2013-02-20,,English,,,,,,male
smIVx,18,8,fem_plain,mal_sws,3,fire_engine,wellyboots,wellyboots,fire_engine,wellyboots,fem_plain_mal_sws,critical,3/22/2017,13:42,right,true,2694,2,2_1_1_1,word_2_word_1,near,wellyboots,Clear_Before,preschool,hanna,2013-02-20,,English,,,,,,male
smIVx,19,9,fem_plain,mal_sws,1,window,pizza,window,pizza,window,fem_plain_mal_sws,critical,3/22/2017,13:42,left,false,2153,2,1_2_1_1,word_1_word_2,far,pizza,Clear_Before,preschool,hanna,2013-02-20,,English,,,,,,male
smIVx,19,9,fem_plain,mal_sws,2,window,pizza,window,pizza,window,fem_plain_mal_sws,critical,3/22/2017,13:42,right,false,5114,1,1_2_1_1,word_1_word_2,far,window,Clear_Before,preschool,hanna,2013-02-20,,English,,,,,,male
smIVx,19,9,fem_plain,mal_sws,3,window,pizza,window,pizza,window,fem_plain_mal_sws,critical,3/22/2017,13:42,left,false,2880,2,1_2_1_1,word_1_word_2,far,pizza,Clear_Before,preschool,hanna,2013-02-20,,English,,,,,,male
smIVx,20,24,fem_plain,mal_sws,1,sink,fish,sink,fish,sink,fem_plain_mal_sws,critical,3/22/2017,13:42,left,false,2248,2,2_1_2_1,word_2_word_1,far,fish,Clear_Before,preschool,hanna,2013-02-20,,English,,,,,,male
smIVx,20,24,fem_plain,mal_sws,2,sink,fish,sink,fish,sink,fem_plain_mal_sws,critical,3/22/2017,13:42,right,false,319,3,2_1_2_1,word_2_word_1,far,sink,Clear_Before,preschool,hanna,2013-02-20,,English,,,,,,male
smIVx,20,24,fem_plain,mal_sws,3,sink,fish,sink,fish,sink,fem_plain_mal_sws,critical,3/22/2017,13:42,left,false,2795,2,2_1_2_1,word_2_word_1,far,fish,Clear_Before,preschool,hanna,2013-02-20,,English,,,,,,male
smIVx,21,6,fem_plain,mal_sws,1,peas,bird,bird,peas,bird,fem_plain_mal_sws,critical,3/22/2017,13:42,left,true,3018,2,2_1_1_1,word_2_word_1,near,peas,Clear_Before,preschool,hanna,2013-02-20,,English,,,,,,male
smIVx,21,6,fem_plain,mal_sws,2,peas,bird,bird,peas,bird,fem_plain_mal_sws,critical,3/22/2017,13:42,left,false,2896,2,2_1_1_1,word_2_word_1,near,peas,Clear_Before,preschool,hanna,2013-02-20,,English,,,,,,male
smIVx,21,6,fem_plain,mal_sws,3,peas,bird,bird,peas,bird,fem_plain_mal_sws,critical,3/22/2017,13:42,right,true,2205,2,2_1_1_1,word_2_word_1,near,bird,Clear_Before,preschool,hanna,2013-02-20,,English,,,,,,male
smIVx,22,1,fem_plain,mal_sws,1,spoon,baby,spoon,spoon,baby,fem_plain_mal_sws,critical,3/22/2017,13:42,left,true,5390,2,2_1_2_1,word_1_word_2,far,spoon,Clear_Before,preschool,hanna,2013-02-20,,English,,,,,,male
smIVx,22,1,fem_plain,mal_sws,2,spoon,baby,spoon,spoon,baby,fem_plain_mal_sws,critical,3/22/2017,13:42,left,false,2785,2,2_1_2_1,word_1_word_2,far,spoon,Clear_Before,preschool,hanna,2013-02-20,,English,,,,,,male
smIVx,22,1,fem_plain,mal_sws,3,spoon,baby,spoon,spoon,baby,fem_plain_mal_sws,critical,3/22/2017,13:42,right,false,3173,1,2_1_2_1,word_1_word_2,far,baby,Clear_Before,preschool,hanna,2013-02-20,,English,,,,,,male
smIVx,23,14,fem_plain,mal_sws,1,cheese,shoes,shoes,shoes,cheese,fem_plain_mal_sws,critical,3/22/2017,13:42,left,false,3470,2,2_1_1_1,word_2_word_1,near,shoes,Clear_Before,preschool,hanna,2013-02-20,,English,,,,,,male
smIVx,23,14,fem_plain,mal_sws,2,cheese,shoes,shoes,shoes,cheese,fem_plain_mal_sws,critical,3/22/2017,13:42,right,false,2573,2,2_1_1_1,word_2_word_1,near,cheese,Clear_Before,preschool,hanna,2013-02-20,,English,,,,,,male
smIVx,23,14,fem_plain,mal_sws,3,cheese,shoes,shoes,shoes,cheese,fem_plain_mal_sws,critical,3/22/2017,13:42,left,true,3351,2,2_1_1_1,word_2_word_1,near,shoes,Clear_Before,preschool,hanna,2013-02-20,,English,,,,,,male
smIVx,24,11,fem_plain,mal_sws,1,book,lorry,book,book,lorry,fem_plain_mal_sws,critical,3/22/2017,13:42,left,true,2602,1,2_1_2_1,word_1_word_2,far,book,Clear_Before,preschool,hanna,2013-02-20,,English,,,,,,male
smIVx,24,11,fem_plain,mal_sws,2,book,lorry,book,book,lorry,fem_plain_mal_sws,critical,3/22/2017,13:42,left,false,2683,1,2_1_2_1,word_1_word_2,far,book,Clear_Before,preschool,hanna,2013-02-20,,English,,,,,,male
smIVx,24,11,fem_plain,mal_sws,3,book,lorry,book,book,lorry,fem_plain_mal_sws,critical,3/22/2017,13:42,right,false,2351,1,2_1_2_1,word_1_word_2,far,lorry,Clear_Before,preschool,hanna,2013-02-20,,English,,,,,,male
smIVx,25,12,fem_plain,mal_sws,1,foot,yoghurt,foot,foot,yoghurt,fem_plain_mal_sws,critical,3/22/2017,13:42,right,false,2268,2,1_2_1_1,word_1_word_2,far,yoghurt,Clear_Before,preschool,hanna,2013-02-20,,English,,,,,,male
smIVx,25,12,fem_plain,mal_sws,2,foot,yoghurt,foot,foot,yoghurt,fem_plain_mal_sws,critical,3/22/2017,13:42,left,false,608,2,1_2_1_1,word_1_word_2,far,foot,Clear_Before,preschool,hanna,2013-02-20,,English,,,,,,male
smIVx,25,12,fem_plain,mal_sws,3,foot,yoghurt,foot,foot,yoghurt,fem_plain_mal_sws,critical,3/22/2017,13:42,right,false,2200,2,1_2_1_1,word_1_word_2,far,yoghurt,Clear_Before,preschool,hanna,2013-02-20,,English,,,,,,male
