subject_id,trial_number,trial_id,plain,sws,instruction_number,sound1_item,sound2_item,sound3_item,left_image,right_image,sound_gender,trial_type,date_stamp,time_stamp,side_chosen,accuracy,rt,play_counter,order,pic_position,distance,chosen_pic,test_lang,testing_loc,tester,date_of_birth,ethnicity,native_lang,other_langs,parental_occ,dev_info,birth_order,num_siblings,gender
SX1eI,1,0,fem_plain,fem_sws,1,fireman,glasses,fireman,fireman,glasses,fem_plain_fem_sws,training,3/14/2017,10:45,left,true,18505,2,2_1_2_1,word_1_word_2,far,fireman,Clear_Before,lab,barbora,2014-02-25,,,,,,Twin,1,female
SX1eI,1,0,fem_plain,fem_sws,2,fireman,glasses,fireman,fireman,glasses,fem_plain_fem_sws,training,3/14/2017,10:45,right,true,2082,2,2_1_2_1,word_1_word_2,far,glasses,Clear_Before,lab,barbora,2014-02-25,,,,,,Twin,1,female
SX1eI,1,0,fem_plain,fem_sws,3,fireman,glasses,fireman,fireman,glasses,fem_plain_fem_sws,training,3/14/2017,10:45,left,true,11796,4,2_1_2_1,word_1_word_2,far,fireman,Clear_Before,lab,barbora,2014-02-25,,,,,,Twin,1,female
SX1eI,2,1,fem_plain,fem_sws,1,baby,spoon,baby,baby,spoon,fem_plain_fem_sws,critical,3/14/2017,10:45,left,true,3236,4,2_1_2_1,word_2_word_1,far,baby,Clear_Before,lab,barbora,2014-02-25,,,,,,Twin,1,female
SX1eI,2,1,fem_plain,fem_sws,2,baby,spoon,baby,baby,spoon,fem_plain_fem_sws,critical,3/14/2017,10:45,right,true,2136,2,2_1_2_1,word_2_word_1,far,spoon,Clear_Before,lab,barbora,2014-02-25,,,,,,Twin,1,female
SX1eI,2,1,fem_plain,fem_sws,3,baby,spoon,baby,baby,spoon,fem_plain_fem_sws,critical,3/14/2017,10:45,left,true,11792,2,2_1_2_1,word_2_word_1,far,baby,Clear_Before,lab,barbora,2014-02-25,,,,,,Twin,1,female
SX1eI,3,22,fem_plain,fem_sws,1,dog,bike,dog,bike,dog,fem_plain_fem_sws,critical,3/14/2017,10:45,right,true,2439,2,1_2_1_1,word_1_word_2,far,dog,Clear_Before,lab,barbora,2014-02-25,,,,,,Twin,1,female
SX1eI,3,22,fem_plain,fem_sws,2,dog,bike,dog,bike,dog,fem_plain_fem_sws,critical,3/14/2017,10:45,left,true,1896,2,1_2_1_1,word_1_word_2,far,bike,Clear_Before,lab,barbora,2014-02-25,,,,,,Twin,1,female
SX1eI,3,22,fem_plain,fem_sws,3,dog,bike,dog,bike,dog,fem_plain_fem_sws,critical,3/14/2017,10:45,right,true,5106,2,1_2_1_1,word_1_word_2,far,dog,Clear_Before,lab,barbora,2014-02-25,,,,,,Twin,1,female
SX1eI,4,12,fem_plain,fem_sws,1,foot,yoghurt,yoghurt,yoghurt,foot,fem_plain_fem_sws,critical,3/14/2017,10:45,right,true,2932,2,1_2_2_1,word_2_word_1,near,foot,Clear_Before,lab,barbora,2014-02-25,,,,,,Twin,1,female
SX1eI,4,12,fem_plain,fem_sws,2,foot,yoghurt,yoghurt,yoghurt,foot,fem_plain_fem_sws,critical,3/14/2017,10:45,left,true,2465,2,1_2_2_1,word_2_word_1,near,yoghurt,Clear_Before,lab,barbora,2014-02-25,,,,,,Twin,1,female
SX1eI,4,12,fem_plain,fem_sws,3,foot,yoghurt,yoghurt,yoghurt,foot,fem_plain_fem_sws,critical,3/14/2017,10:45,left,true,9343,4,1_2_2_1,word_2_word_1,near,yoghurt,Clear_Before,lab,barbora,2014-02-25,,,,,,Twin,1,female
SX1eI,5,3,fem_plain,fem_sws,1,nose,trousers,trousers,nose,trousers,fem_plain_fem_sws,critical,3/14/2017,10:45,left,true,3747,2,2_1_1_1,word_2_word_1,near,nose,Clear_Before,lab,barbora,2014-02-25,,,,,,Twin,1,female
SX1eI,5,3,fem_plain,fem_sws,2,nose,trousers,trousers,nose,trousers,fem_plain_fem_sws,critical,3/14/2017,10:45,right,true,2116,2,2_1_1_1,word_2_word_1,near,trousers,Clear_Before,lab,barbora,2014-02-25,,,,,,Twin,1,female
SX1eI,5,3,fem_plain,fem_sws,3,nose,trousers,trousers,nose,trousers,fem_plain_fem_sws,critical,3/14/2017,10:45,right,true,7842,2,2_1_1_1,word_2_word_1,near,trousers,Clear_Before,lab,barbora,2014-02-25,,,,,,Twin,1,female
SX1eI,6,19,fem_plain,fem_sws,1,building_blocks,santa,building_blocks,building_blocks,santa,fem_plain_fem_sws,critical,3/14/2017,10:45,left,true,2489,2,2_1_2_1,word_2_word_1,far,building_blocks,Clear_Before,lab,barbora,2014-02-25,,,,,,Twin,1,female
SX1eI,6,19,fem_plain,fem_sws,2,building_blocks,santa,building_blocks,building_blocks,santa,fem_plain_fem_sws,critical,3/14/2017,10:45,right,true,1932,1,2_1_2_1,word_2_word_1,far,santa,Clear_Before,lab,barbora,2014-02-25,,,,,,Twin,1,female
SX1eI,6,19,fem_plain,fem_sws,3,building_blocks,santa,building_blocks,building_blocks,santa,fem_plain_fem_sws,critical,3/14/2017,10:45,left,true,10749,2,2_1_2_1,word_2_word_1,far,building_blocks,Clear_Before,lab,barbora,2014-02-25,,,,,,Twin,1,female
SX1eI,7,6,fem_plain,fem_sws,1,bird,peas,bird,peas,bird,fem_plain_fem_sws,critical,3/14/2017,10:45,right,true,2297,2,1_2_1_1,word_2_word_1,far,bird,Clear_Before,lab,barbora,2014-02-25,,,,,,Twin,1,female
SX1eI,7,6,fem_plain,fem_sws,2,bird,peas,bird,peas,bird,fem_plain_fem_sws,critical,3/14/2017,10:45,left,true,2497,2,1_2_1_1,word_2_word_1,far,peas,Clear_Before,lab,barbora,2014-02-25,,,,,,Twin,1,female
SX1eI,7,6,fem_plain,fem_sws,3,bird,peas,bird,peas,bird,fem_plain_fem_sws,critical,3/14/2017,10:45,right,true,16519,4,1_2_1_1,word_2_word_1,far,bird,Clear_Before,lab,barbora,2014-02-25,,,,,,Twin,1,female
SX1eI,8,14,fem_plain,fem_sws,1,cheese,shoes,shoes,shoes,cheese,fem_plain_fem_sws,critical,3/14/2017,10:45,right,true,2693,2,2_1_1_1,word_2_word_1,near,cheese,Clear_Before,lab,barbora,2014-02-25,,,,,,Twin,1,female
SX1eI,8,14,fem_plain,fem_sws,2,cheese,shoes,shoes,shoes,cheese,fem_plain_fem_sws,critical,3/14/2017,10:45,left,true,2698,2,2_1_1_1,word_2_word_1,near,shoes,Clear_Before,lab,barbora,2014-02-25,,,,,,Twin,1,female
SX1eI,8,14,fem_plain,fem_sws,3,cheese,shoes,shoes,shoes,cheese,fem_plain_fem_sws,critical,3/14/2017,10:45,left,true,11707,2,2_1_1_1,word_2_word_1,near,shoes,Clear_Before,lab,barbora,2014-02-25,,,,,,Twin,1,female
SX1eI,9,5,fem_plain,fem_sws,1,car,orange,orange,car,orange,fem_plain_fem_sws,critical,3/14/2017,10:45,left,true,2515,2,1_2_2_1,word_2_word_1,near,car,Clear_Before,lab,barbora,2014-02-25,,,,,,Twin,1,female
SX1eI,9,5,fem_plain,fem_sws,2,car,orange,orange,car,orange,fem_plain_fem_sws,critical,3/14/2017,10:45,right,true,2619,2,1_2_2_1,word_2_word_1,near,orange,Clear_Before,lab,barbora,2014-02-25,,,,,,Twin,1,female
SX1eI,9,5,fem_plain,fem_sws,3,car,orange,orange,car,orange,fem_plain_fem_sws,critical,3/14/2017,10:45,right,true,8678,1,1_2_2_1,word_2_word_1,near,orange,Clear_Before,lab,barbora,2014-02-25,,,,,,Twin,1,female
SX1eI,10,18,fem_plain,fem_sws,1,raspberry,ball,raspberry,raspberry,ball,fem_plain_fem_sws,critical,3/14/2017,10:45,left,true,3314,2,2_1_2_1,word_2_word_1,far,raspberry,Clear_Before,lab,barbora,2014-02-25,,,,,,Twin,1,female
SX1eI,10,18,fem_plain,fem_sws,2,raspberry,ball,raspberry,raspberry,ball,fem_plain_fem_sws,critical,3/14/2017,10:45,right,true,2569,2,2_1_2_1,word_2_word_1,far,ball,Clear_Before,lab,barbora,2014-02-25,,,,,,Twin,1,female
SX1eI,10,18,fem_plain,fem_sws,3,raspberry,ball,raspberry,raspberry,ball,fem_plain_fem_sws,critical,3/14/2017,10:45,left,true,12808,2,2_1_2_1,word_2_word_1,far,raspberry,Clear_Before,lab,barbora,2014-02-25,,,,,,Twin,1,female
SX1eI,11,13,fem_plain,fem_sws,1,airplane,toothbrush,airplane,airplane,toothbrush,fem_plain_fem_sws,critical,3/14/2017,10:45,left,true,2970,4,1_2_1_1,word_2_word_1,far,airplane,Clear_Before,lab,barbora,2014-02-25,,,,,,Twin,1,female
SX1eI,11,13,fem_plain,fem_sws,2,airplane,toothbrush,airplane,airplane,toothbrush,fem_plain_fem_sws,critical,3/14/2017,10:45,right,true,2497,2,1_2_1_1,word_2_word_1,far,toothbrush,Clear_Before,lab,barbora,2014-02-25,,,,,,Twin,1,female
SX1eI,11,13,fem_plain,fem_sws,3,airplane,toothbrush,airplane,airplane,toothbrush,fem_plain_fem_sws,critical,3/14/2017,10:45,left,true,4271,2,1_2_1_1,word_2_word_1,far,airplane,Clear_Before,lab,barbora,2014-02-25,,,,,,Twin,1,female
SX1eI,12,2,fem_plain,fem_sws,1,bed,chicken,chicken,chicken,bed,fem_plain_fem_sws,critical,3/14/2017,10:45,right,true,3764,2,1_2_2_1,word_2_word_1,near,bed,Clear_Before,lab,barbora,2014-02-25,,,,,,Twin,1,female
SX1eI,12,2,fem_plain,fem_sws,2,bed,chicken,chicken,chicken,bed,fem_plain_fem_sws,critical,3/14/2017,10:45,left,true,2697,2,1_2_2_1,word_2_word_1,near,chicken,Clear_Before,lab,barbora,2014-02-25,,,,,,Twin,1,female
SX1eI,12,2,fem_plain,fem_sws,3,bed,chicken,chicken,chicken,bed,fem_plain_fem_sws,critical,3/14/2017,10:45,left,true,13163,2,1_2_2_1,word_2_word_1,near,chicken,Clear_Before,lab,barbora,2014-02-25,,,,,,Twin,1,female
SX1eI,13,15,fem_plain,fem_sws,1,pencil,slide,slide,pencil,slide,fem_plain_fem_sws,critical,3/14/2017,10:45,left,true,3246,2,1_2_2_1,word_2_word_1,near,pencil,Clear_Before,lab,barbora,2014-02-25,,,,,,Twin,1,female
SX1eI,13,15,fem_plain,fem_sws,2,pencil,slide,slide,pencil,slide,fem_plain_fem_sws,critical,3/14/2017,10:45,right,true,4419,2,1_2_2_1,word_2_word_1,near,slide,Clear_Before,lab,barbora,2014-02-25,,,,,,Twin,1,female
SX1eI,13,15,fem_plain,fem_sws,3,pencil,slide,slide,pencil,slide,fem_plain_fem_sws,critical,3/14/2017,10:45,right,true,8836,2,1_2_2_1,word_2_word_1,near,slide,Clear_Before,lab,barbora,2014-02-25,,,,,,Twin,1,female
SX1eI,14,23,fem_plain,fem_sws,1,teddy_bear,bath,teddy_bear,teddy_bear,bath,fem_plain_fem_sws,critical,3/14/2017,10:45,left,true,3005,2,1_2_1_1,word_2_word_1,far,teddy_bear,Clear_Before,lab,barbora,2014-02-25,,,,,,Twin,1,female
SX1eI,14,23,fem_plain,fem_sws,2,teddy_bear,bath,teddy_bear,teddy_bear,bath,fem_plain_fem_sws,critical,3/14/2017,10:45,right,true,811,2,1_2_1_1,word_2_word_1,far,bath,Clear_Before,lab,barbora,2014-02-25,,,,,,Twin,1,female
SX1eI,14,23,fem_plain,fem_sws,3,teddy_bear,bath,teddy_bear,teddy_bear,bath,fem_plain_fem_sws,critical,3/14/2017,10:45,left,true,5717,2,1_2_1_1,word_2_word_1,far,teddy_bear,Clear_Before,lab,barbora,2014-02-25,,,,,,Twin,1,female
SX1eI,15,24,fem_plain,fem_sws,1,fish,sink,sink,sink,fish,fem_plain_fem_sws,critical,3/14/2017,10:45,right,true,7618,2,2_1_1_1,word_1_word_2,near,fish,Clear_Before,lab,barbora,2014-02-25,,,,,,Twin,1,female
SX1eI,15,24,fem_plain,fem_sws,2,fish,sink,sink,sink,fish,fem_plain_fem_sws,critical,3/14/2017,10:45,left,true,2819,2,2_1_1_1,word_1_word_2,near,sink,Clear_Before,lab,barbora,2014-02-25,,,,,,Twin,1,female
SX1eI,15,24,fem_plain,fem_sws,3,fish,sink,sink,sink,fish,fem_plain_fem_sws,critical,3/14/2017,10:45,left,true,5346,2,2_1_1_1,word_1_word_2,near,sink,Clear_Before,lab,barbora,2014-02-25,,,,,,Twin,1,female
SX1eI,16,17,fem_plain,fem_sws,1,cake,ambulance,ambulance,ambulance,cake,fem_plain_fem_sws,critical,3/14/2017,10:45,right,true,3173,1,1_2_2_1,word_2_word_1,near,cake,Clear_Before,lab,barbora,2014-02-25,,,,,,Twin,1,female
SX1eI,16,17,fem_plain,fem_sws,2,cake,ambulance,ambulance,ambulance,cake,fem_plain_fem_sws,critical,3/14/2017,10:45,left,true,2322,2,1_2_2_1,word_2_word_1,near,ambulance,Clear_Before,lab,barbora,2014-02-25,,,,,,Twin,1,female
SX1eI,16,17,fem_plain,fem_sws,3,cake,ambulance,ambulance,ambulance,cake,fem_plain_fem_sws,critical,3/14/2017,10:45,left,true,3126,2,1_2_2_1,word_2_word_1,near,ambulance,Clear_Before,lab,barbora,2014-02-25,,,,,,Twin,1,female
SX1eI,17,10,fem_plain,fem_sws,1,pig,tshirt,pig,pig,tshirt,fem_plain_fem_sws,critical,3/14/2017,10:45,left,true,2272,2,2_1_2_1,word_1_word_2,far,pig,Clear_Before,lab,barbora,2014-02-25,,,,,,Twin,1,female
SX1eI,17,10,fem_plain,fem_sws,2,pig,tshirt,pig,pig,tshirt,fem_plain_fem_sws,critical,3/14/2017,10:45,right,true,1986,2,2_1_2_1,word_1_word_2,far,tshirt,Clear_Before,lab,barbora,2014-02-25,,,,,,Twin,1,female
SX1eI,17,10,fem_plain,fem_sws,3,pig,tshirt,pig,pig,tshirt,fem_plain_fem_sws,critical,3/14/2017,10:45,left,true,2908,2,2_1_2_1,word_1_word_2,far,pig,Clear_Before,lab,barbora,2014-02-25,,,,,,Twin,1,female
SX1eI,18,21,fem_plain,fem_sws,1,sheep,frog,frog,sheep,frog,fem_plain_fem_sws,critical,3/14/2017,10:45,right,false,4760,2,2_1_1_1,word_2_word_1,near,frog,Clear_Before,lab,barbora,2014-02-25,,,,,,Twin,1,female
SX1eI,18,21,fem_plain,fem_sws,2,sheep,frog,frog,sheep,frog,fem_plain_fem_sws,critical,3/14/2017,10:45,left,false,3497,2,2_1_1_1,word_2_word_1,near,sheep,Clear_Before,lab,barbora,2014-02-25,,,,,,Twin,1,female
SX1eI,18,21,fem_plain,fem_sws,3,sheep,frog,frog,sheep,frog,fem_plain_fem_sws,critical,3/14/2017,10:45,right,true,2461,2,2_1_1_1,word_2_word_1,near,frog,Clear_Before,lab,barbora,2014-02-25,,,,,,Twin,1,female
SX1eI,19,20,fem_plain,fem_sws,1,rabbit,jumper,rabbit,rabbit,jumper,fem_plain_fem_sws,critical,3/14/2017,10:45,left,true,4311,1,2_1_2_1,word_2_word_1,far,rabbit,Clear_Before,lab,barbora,2014-02-25,,,,,,Twin,1,female
SX1eI,19,20,fem_plain,fem_sws,2,rabbit,jumper,rabbit,rabbit,jumper,fem_plain_fem_sws,critical,3/14/2017,10:45,left,false,2767,2,2_1_2_1,word_2_word_1,far,rabbit,Clear_Before,lab,barbora,2014-02-25,,,,,,Twin,1,female
SX1eI,19,20,fem_plain,fem_sws,3,rabbit,jumper,rabbit,rabbit,jumper,fem_plain_fem_sws,critical,3/14/2017,10:45,right,false,3593,2,2_1_2_1,word_2_word_1,far,jumper,Clear_Before,lab,barbora,2014-02-25,,,,,,Twin,1,female
SX1eI,20,11,fem_plain,fem_sws,1,lorry,book,lorry,book,lorry,fem_plain_fem_sws,critical,3/14/2017,10:45,right,true,2961,2,1_2_1_1,word_1_word_2,far,lorry,Clear_Before,lab,barbora,2014-02-25,,,,,,Twin,1,female
SX1eI,20,11,fem_plain,fem_sws,2,lorry,book,lorry,book,lorry,fem_plain_fem_sws,critical,3/14/2017,10:45,right,false,3035,2,1_2_1_1,word_1_word_2,far,lorry,Clear_Before,lab,barbora,2014-02-25,,,,,,Twin,1,female
SX1eI,20,11,fem_plain,fem_sws,3,lorry,book,lorry,book,lorry,fem_plain_fem_sws,critical,3/14/2017,10:45,left,false,2371,2,1_2_1_1,word_1_word_2,far,book,Clear_Before,lab,barbora,2014-02-25,,,,,,Twin,1,female
SX1eI,21,4,fem_plain,fem_sws,1,coat,strawberry,strawberry,coat,strawberry,fem_plain_fem_sws,critical,3/14/2017,10:45,right,false,3664,2,1_2_2_1,word_1_word_2,near,strawberry,Clear_Before,lab,barbora,2014-02-25,,,,,,Twin,1,female
SX1eI,21,4,fem_plain,fem_sws,2,coat,strawberry,strawberry,coat,strawberry,fem_plain_fem_sws,critical,3/14/2017,10:45,left,false,1140,2,1_2_2_1,word_1_word_2,near,coat,Clear_Before,lab,barbora,2014-02-25,,,,,,Twin,1,female
SX1eI,21,4,fem_plain,fem_sws,3,coat,strawberry,strawberry,coat,strawberry,fem_plain_fem_sws,critical,3/14/2017,10:45,right,true,2691,2,1_2_2_1,word_1_word_2,near,strawberry,Clear_Before,lab,barbora,2014-02-25,,,,,,Twin,1,female
SX1eI,22,9,fem_plain,fem_sws,1,window,pizza,pizza,window,pizza,fem_plain_fem_sws,critical,3/14/2017,10:45,right,false,4216,2,2_1_1_1,word_2_word_1,near,pizza,Clear_Before,lab,barbora,2014-02-25,,,,,,Twin,1,female
SX1eI,22,9,fem_plain,fem_sws,2,window,pizza,pizza,window,pizza,fem_plain_fem_sws,critical,3/14/2017,10:45,left,false,4012,2,2_1_1_1,word_2_word_1,near,window,Clear_Before,lab,barbora,2014-02-25,,,,,,Twin,1,female
SX1eI,22,9,fem_plain,fem_sws,3,window,pizza,pizza,window,pizza,fem_plain_fem_sws,critical,3/14/2017,10:45,right,true,2782,2,2_1_1_1,word_2_word_1,near,pizza,Clear_Before,lab,barbora,2014-02-25,,,,,,Twin,1,female
SX1eI,23,16,fem_plain,fem_sws,1,banana,paintbrush,paintbrush,banana,paintbrush,fem_plain_fem_sws,critical,3/14/2017,10:45,right,false,2847,2,2_1_1_1,word_2_word_1,near,paintbrush,Clear_Before,lab,barbora,2014-02-25,,,,,,Twin,1,female
SX1eI,23,16,fem_plain,fem_sws,2,banana,paintbrush,paintbrush,banana,paintbrush,fem_plain_fem_sws,critical,3/14/2017,10:45,left,false,1355,2,2_1_1_1,word_2_word_1,near,banana,Clear_Before,lab,barbora,2014-02-25,,,,,,Twin,1,female
SX1eI,23,16,fem_plain,fem_sws,3,banana,paintbrush,paintbrush,banana,paintbrush,fem_plain_fem_sws,critical,3/14/2017,10:45,right,true,3052,2,2_1_1_1,word_2_word_1,near,paintbrush,Clear_Before,lab,barbora,2014-02-25,,,,,,Twin,1,female
SX1eI,24,8,fem_plain,fem_sws,1,wellyboots,fire_engine,wellyboots,wellyboots,fire_engine,fem_plain_fem_sws,critical,3/14/2017,10:45,right,false,5614,2,1_2_1_1,word_1_word_2,far,fire_engine,Clear_Before,lab,barbora,2014-02-25,,,,,,Twin,1,female
SX1eI,24,8,fem_plain,fem_sws,2,wellyboots,fire_engine,wellyboots,wellyboots,fire_engine,fem_plain_fem_sws,critical,3/14/2017,10:45,left,false,1966,2,1_2_1_1,word_1_word_2,far,wellyboots,Clear_Before,lab,barbora,2014-02-25,,,,,,Twin,1,female
SX1eI,24,8,fem_plain,fem_sws,3,wellyboots,fire_engine,wellyboots,wellyboots,fire_engine,fem_plain_fem_sws,critical,3/14/2017,10:45,right,false,3330,2,1_2_1_1,word_1_word_2,far,fire_engine,Clear_Before,lab,barbora,2014-02-25,,,,,,Twin,1,female
SX1eI,25,7,fem_plain,fem_sws,1,horse,lolly,horse,horse,lolly,fem_plain_fem_sws,critical,3/14/2017,10:45,right,false,5309,4,1_2_1_1,word_2_word_1,far,lolly,Clear_Before,lab,barbora,2014-02-25,,,,,,Twin,1,female
SX1eI,25,7,fem_plain,fem_sws,2,horse,lolly,horse,horse,lolly,fem_plain_fem_sws,critical,3/14/2017,10:45,left,false,2472,2,1_2_1_1,word_2_word_1,far,horse,Clear_Before,lab,barbora,2014-02-25,,,,,,Twin,1,female
SX1eI,25,7,fem_plain,fem_sws,3,horse,lolly,horse,horse,lolly,fem_plain_fem_sws,critical,3/14/2017,10:45,right,false,114,2,1_2_1_1,word_2_word_1,far,lolly,Clear_Before,lab,barbora,2014-02-25,,,,,,Twin,1,female
