subject_id,trial_number,trial_id,plain,sws,instruction_number,sound1_item,sound2_item,sound3_item,left_image,right_image,sound_gender,trial_type,date_stamp,time_stamp,side_chosen,accuracy,rt,play_counter,order,pic_position,distance,chosen_pic,test_lang,testing_loc,tester,date_of_birth,ethnicity,native_lang,other_langs,parental_occ,dev_info,birth_order,num_siblings,gender
t6fJS,1,0,mal_plain,mal_sws,1,glasses,fireman,glasses,glasses,fireman,mal_plain_mal_sws,training,3/31/2017,16:39,left,true,3938,4,2_1_2_1,word_2_word_1,far,glasses,Clear_Before,lab,hanna,2014-10-26,,Catalan/Spanish,English,,,,,female
t6fJS,1,0,mal_plain,mal_sws,2,glasses,fireman,glasses,glasses,fireman,mal_plain_mal_sws,training,3/31/2017,16:39,right,true,3782,4,2_1_2_1,word_2_word_1,far,fireman,Clear_Before,lab,hanna,2014-10-26,,Catalan/Spanish,English,,,,,female
t6fJS,1,0,mal_plain,mal_sws,3,glasses,fireman,glasses,glasses,fireman,mal_plain_mal_sws,training,3/31/2017,16:39,left,true,7218,4,2_1_2_1,word_2_word_1,far,glasses,Clear_Before,lab,hanna,2014-10-26,,Catalan/Spanish,English,,,,,female
t6fJS,2,9,mal_plain,mal_sws,1,window,pizza,pizza,window,pizza,mal_plain_mal_sws,critical,3/31/2017,16:39,left,true,3762,2,2_1_1_1,word_2_word_1,near,window,Clear_Before,lab,hanna,2014-10-26,,Catalan/Spanish,English,,,,,female
t6fJS,2,9,mal_plain,mal_sws,2,window,pizza,pizza,window,pizza,mal_plain_mal_sws,critical,3/31/2017,16:39,right,true,2832,2,2_1_1_1,word_2_word_1,near,pizza,Clear_Before,lab,hanna,2014-10-26,,Catalan/Spanish,English,,,,,female
t6fJS,2,9,mal_plain,mal_sws,3,window,pizza,pizza,window,pizza,mal_plain_mal_sws,critical,3/31/2017,16:39,left,false,5161,4,2_1_1_1,word_2_word_1,near,window,Clear_Before,lab,hanna,2014-10-26,,Catalan/Spanish,English,,,,,female
t6fJS,3,12,mal_plain,mal_sws,1,yoghurt,foot,yoghurt,foot,yoghurt,mal_plain_mal_sws,critical,3/31/2017,16:39,right,true,4163,2,2_1_2_1,word_1_word_2,far,yoghurt,Clear_Before,lab,hanna,2014-10-26,,Catalan/Spanish,English,,,,,female
t6fJS,3,12,mal_plain,mal_sws,2,yoghurt,foot,yoghurt,foot,yoghurt,mal_plain_mal_sws,critical,3/31/2017,16:39,left,true,2541,2,2_1_2_1,word_1_word_2,far,foot,Clear_Before,lab,hanna,2014-10-26,,Catalan/Spanish,English,,,,,female
t6fJS,3,12,mal_plain,mal_sws,3,yoghurt,foot,yoghurt,foot,yoghurt,mal_plain_mal_sws,critical,3/31/2017,16:39,right,true,8098,2,2_1_2_1,word_1_word_2,far,yoghurt,Clear_Before,lab,hanna,2014-10-26,,Catalan/Spanish,English,,,,,female
t6fJS,4,20,mal_plain,mal_sws,1,jumper,rabbit,jumper,rabbit,jumper,mal_plain_mal_sws,critical,3/31/2017,16:39,right,true,5262,2,2_1_2_1,word_2_word_1,far,jumper,Clear_Before,lab,hanna,2014-10-26,,Catalan/Spanish,English,,,,,female
t6fJS,4,20,mal_plain,mal_sws,2,jumper,rabbit,jumper,rabbit,jumper,mal_plain_mal_sws,critical,3/31/2017,16:39,left,true,2586,1,2_1_2_1,word_2_word_1,far,rabbit,Clear_Before,lab,hanna,2014-10-26,,Catalan/Spanish,English,,,,,female
t6fJS,4,20,mal_plain,mal_sws,3,jumper,rabbit,jumper,rabbit,jumper,mal_plain_mal_sws,critical,3/31/2017,16:39,right,true,7652,2,2_1_2_1,word_2_word_1,far,jumper,Clear_Before,lab,hanna,2014-10-26,,Catalan/Spanish,English,,,,,female
t6fJS,5,16,mal_plain,mal_sws,1,banana,paintbrush,paintbrush,banana,paintbrush,mal_plain_mal_sws,critical,3/31/2017,16:39,left,true,3000,4,1_2_2_1,word_2_word_1,near,banana,Clear_Before,lab,hanna,2014-10-26,,Catalan/Spanish,English,,,,,female
t6fJS,5,16,mal_plain,mal_sws,2,banana,paintbrush,paintbrush,banana,paintbrush,mal_plain_mal_sws,critical,3/31/2017,16:39,right,true,3557,1,1_2_2_1,word_2_word_1,near,paintbrush,Clear_Before,lab,hanna,2014-10-26,,Catalan/Spanish,English,,,,,female
t6fJS,5,16,mal_plain,mal_sws,3,banana,paintbrush,paintbrush,banana,paintbrush,mal_plain_mal_sws,critical,3/31/2017,16:39,right,true,6777,2,1_2_2_1,word_2_word_1,near,paintbrush,Clear_Before,lab,hanna,2014-10-26,,Catalan/Spanish,English,,,,,female
t6fJS,6,5,mal_plain,mal_sws,1,car,orange,car,car,orange,mal_plain_mal_sws,critical,3/31/2017,16:39,left,true,4429,2,1_2_1_1,word_2_word_1,far,car,Clear_Before,lab,hanna,2014-10-26,,Catalan/Spanish,English,,,,,female
t6fJS,6,5,mal_plain,mal_sws,2,car,orange,car,car,orange,mal_plain_mal_sws,critical,3/31/2017,16:39,right,true,4649,1,1_2_1_1,word_2_word_1,far,orange,Clear_Before,lab,hanna,2014-10-26,,Catalan/Spanish,English,,,,,female
t6fJS,6,5,mal_plain,mal_sws,3,car,orange,car,car,orange,mal_plain_mal_sws,critical,3/31/2017,16:39,left,true,4853,2,1_2_1_1,word_2_word_1,far,car,Clear_Before,lab,hanna,2014-10-26,,Catalan/Spanish,English,,,,,female
t6fJS,7,8,mal_plain,mal_sws,1,fire_engine,wellyboots,wellyboots,fire_engine,wellyboots,mal_plain_mal_sws,critical,3/31/2017,16:39,left,true,4044,2,1_2_2_1,word_2_word_1,near,fire_engine,Clear_Before,lab,hanna,2014-10-26,,Catalan/Spanish,English,,,,,female
t6fJS,7,8,mal_plain,mal_sws,2,fire_engine,wellyboots,wellyboots,fire_engine,wellyboots,mal_plain_mal_sws,critical,3/31/2017,16:39,right,true,4056,1,1_2_2_1,word_2_word_1,near,wellyboots,Clear_Before,lab,hanna,2014-10-26,,Catalan/Spanish,English,,,,,female
t6fJS,7,8,mal_plain,mal_sws,3,fire_engine,wellyboots,wellyboots,fire_engine,wellyboots,mal_plain_mal_sws,critical,3/31/2017,16:39,right,true,4714,2,1_2_2_1,word_2_word_1,near,wellyboots,Clear_Before,lab,hanna,2014-10-26,,Catalan/Spanish,English,,,,,female
t6fJS,8,22,mal_plain,mal_sws,1,bike,dog,bike,dog,bike,mal_plain_mal_sws,critical,3/31/2017,16:39,right,true,3336,2,1_2_1_1,word_2_word_1,far,bike,Clear_Before,lab,hanna,2014-10-26,,Catalan/Spanish,English,,,,,female
t6fJS,8,22,mal_plain,mal_sws,2,bike,dog,bike,dog,bike,mal_plain_mal_sws,critical,3/31/2017,16:39,left,true,3188,2,1_2_1_1,word_2_word_1,far,dog,Clear_Before,lab,hanna,2014-10-26,,Catalan/Spanish,English,,,,,female
t6fJS,8,22,mal_plain,mal_sws,3,bike,dog,bike,dog,bike,mal_plain_mal_sws,critical,3/31/2017,16:39,right,true,3656,2,1_2_1_1,word_2_word_1,far,bike,Clear_Before,lab,hanna,2014-10-26,,Catalan/Spanish,English,,,,,female
t6fJS,9,1,mal_plain,mal_sws,1,baby,spoon,baby,spoon,baby,mal_plain_mal_sws,critical,3/31/2017,16:39,right,true,3085,4,1_2_1_1,word_1_word_2,far,baby,Clear_Before,lab,hanna,2014-10-26,,Catalan/Spanish,English,,,,,female
t6fJS,9,1,mal_plain,mal_sws,2,baby,spoon,baby,spoon,baby,mal_plain_mal_sws,critical,3/31/2017,16:39,left,true,2570,2,1_2_1_1,word_1_word_2,far,spoon,Clear_Before,lab,hanna,2014-10-26,,Catalan/Spanish,English,,,,,female
t6fJS,9,1,mal_plain,mal_sws,3,baby,spoon,baby,spoon,baby,mal_plain_mal_sws,critical,3/31/2017,16:39,right,true,2786,2,1_2_1_1,word_1_word_2,far,baby,Clear_Before,lab,hanna,2014-10-26,,Catalan/Spanish,English,,,,,female
t6fJS,10,10,mal_plain,mal_sws,1,pig,tshirt,tshirt,pig,tshirt,mal_plain_mal_sws,critical,3/31/2017,16:39,left,true,3110,2,2_1_1_1,word_1_word_2,near,pig,Clear_Before,lab,hanna,2014-10-26,,Catalan/Spanish,English,,,,,female
t6fJS,10,10,mal_plain,mal_sws,2,pig,tshirt,tshirt,pig,tshirt,mal_plain_mal_sws,critical,3/31/2017,16:39,right,true,3524,1,2_1_1_1,word_1_word_2,near,tshirt,Clear_Before,lab,hanna,2014-10-26,,Catalan/Spanish,English,,,,,female
t6fJS,10,10,mal_plain,mal_sws,3,pig,tshirt,tshirt,pig,tshirt,mal_plain_mal_sws,critical,3/31/2017,16:39,right,true,4619,1,2_1_1_1,word_1_word_2,near,tshirt,Clear_Before,lab,hanna,2014-10-26,,Catalan/Spanish,English,,,,,female
t6fJS,11,24,mal_plain,mal_sws,1,fish,sink,fish,sink,fish,mal_plain_mal_sws,critical,3/31/2017,16:39,right,true,3874,2,2_1_2_1,word_1_word_2,far,fish,Clear_Before,lab,hanna,2014-10-26,,Catalan/Spanish,English,,,,,female
t6fJS,11,24,mal_plain,mal_sws,2,fish,sink,fish,sink,fish,mal_plain_mal_sws,critical,3/31/2017,16:39,left,true,3273,1,2_1_2_1,word_1_word_2,far,sink,Clear_Before,lab,hanna,2014-10-26,,Catalan/Spanish,English,,,,,female
t6fJS,11,24,mal_plain,mal_sws,3,fish,sink,fish,sink,fish,mal_plain_mal_sws,critical,3/31/2017,16:39,right,true,5278,1,2_1_2_1,word_1_word_2,far,fish,Clear_Before,lab,hanna,2014-10-26,,Catalan/Spanish,English,,,,,female
t6fJS,12,4,mal_plain,mal_sws,1,strawberry,coat,coat,strawberry,coat,mal_plain_mal_sws,critical,3/31/2017,16:39,left,true,3343,2,2_1_1_1,word_2_word_1,near,strawberry,Clear_Before,lab,hanna,2014-10-26,,Catalan/Spanish,English,,,,,female
t6fJS,12,4,mal_plain,mal_sws,2,strawberry,coat,coat,strawberry,coat,mal_plain_mal_sws,critical,3/31/2017,16:39,right,true,3621,1,2_1_1_1,word_2_word_1,near,coat,Clear_Before,lab,hanna,2014-10-26,,Catalan/Spanish,English,,,,,female
t6fJS,12,4,mal_plain,mal_sws,3,strawberry,coat,coat,strawberry,coat,mal_plain_mal_sws,critical,3/31/2017,16:39,right,true,9445,2,2_1_1_1,word_2_word_1,near,coat,Clear_Before,lab,hanna,2014-10-26,,Catalan/Spanish,English,,,,,female
t6fJS,13,14,mal_plain,mal_sws,1,cheese,shoes,shoes,shoes,cheese,mal_plain_mal_sws,critical,3/31/2017,16:39,right,true,3372,2,1_2_2_1,word_2_word_1,near,cheese,Clear_Before,lab,hanna,2014-10-26,,Catalan/Spanish,English,,,,,female
t6fJS,13,14,mal_plain,mal_sws,2,cheese,shoes,shoes,shoes,cheese,mal_plain_mal_sws,critical,3/31/2017,16:39,left,true,2775,1,1_2_2_1,word_2_word_1,near,shoes,Clear_Before,lab,hanna,2014-10-26,,Catalan/Spanish,English,,,,,female
t6fJS,13,14,mal_plain,mal_sws,3,cheese,shoes,shoes,shoes,cheese,mal_plain_mal_sws,critical,3/31/2017,16:39,left,true,4986,1,1_2_2_1,word_2_word_1,near,shoes,Clear_Before,lab,hanna,2014-10-26,,Catalan/Spanish,English,,,,,female
t6fJS,14,7,mal_plain,mal_sws,1,horse,lolly,lolly,horse,lolly,mal_plain_mal_sws,critical,3/31/2017,16:39,left,true,3722,2,2_1_1_1,word_2_word_1,near,horse,Clear_Before,lab,hanna,2014-10-26,,Catalan/Spanish,English,,,,,female
t6fJS,14,7,mal_plain,mal_sws,2,horse,lolly,lolly,horse,lolly,mal_plain_mal_sws,critical,3/31/2017,16:39,right,true,3844,2,2_1_1_1,word_2_word_1,near,lolly,Clear_Before,lab,hanna,2014-10-26,,Catalan/Spanish,English,,,,,female
t6fJS,14,7,mal_plain,mal_sws,3,horse,lolly,lolly,horse,lolly,mal_plain_mal_sws,critical,3/31/2017,16:39,right,true,4116,2,2_1_1_1,word_2_word_1,near,lolly,Clear_Before,lab,hanna,2014-10-26,,Catalan/Spanish,English,,,,,female
t6fJS,15,15,mal_plain,mal_sws,1,slide,pencil,pencil,pencil,slide,mal_plain_mal_sws,critical,3/31/2017,16:39,right,true,3357,2,1_2_2_1,word_2_word_1,near,slide,Clear_Before,lab,hanna,2014-10-26,,Catalan/Spanish,English,,,,,female
t6fJS,15,15,mal_plain,mal_sws,2,slide,pencil,pencil,pencil,slide,mal_plain_mal_sws,critical,3/31/2017,16:39,left,true,2409,1,1_2_2_1,word_2_word_1,near,pencil,Clear_Before,lab,hanna,2014-10-26,,Catalan/Spanish,English,,,,,female
t6fJS,15,15,mal_plain,mal_sws,3,slide,pencil,pencil,pencil,slide,mal_plain_mal_sws,critical,3/31/2017,16:39,left,true,3582,1,1_2_2_1,word_2_word_1,near,pencil,Clear_Before,lab,hanna,2014-10-26,,Catalan/Spanish,English,,,,,female
t6fJS,16,3,mal_plain,mal_sws,1,trousers,nose,nose,trousers,nose,mal_plain_mal_sws,critical,3/31/2017,16:39,left,true,2900,2,2_1_1_1,word_1_word_2,near,trousers,Clear_Before,lab,hanna,2014-10-26,,Catalan/Spanish,English,,,,,female
t6fJS,16,3,mal_plain,mal_sws,2,trousers,nose,nose,trousers,nose,mal_plain_mal_sws,critical,3/31/2017,16:39,right,true,3217,2,2_1_1_1,word_1_word_2,near,nose,Clear_Before,lab,hanna,2014-10-26,,Catalan/Spanish,English,,,,,female
t6fJS,16,3,mal_plain,mal_sws,3,trousers,nose,nose,trousers,nose,mal_plain_mal_sws,critical,3/31/2017,16:39,right,true,5085,2,2_1_1_1,word_1_word_2,near,nose,Clear_Before,lab,hanna,2014-10-26,,Catalan/Spanish,English,,,,,female
t6fJS,17,11,mal_plain,mal_sws,1,lorry,book,lorry,lorry,book,mal_plain_mal_sws,critical,3/31/2017,16:39,left,true,4813,2,1_2_1_1,word_2_word_1,far,lorry,Clear_Before,lab,hanna,2014-10-26,,Catalan/Spanish,English,,,,,female
t6fJS,17,11,mal_plain,mal_sws,2,lorry,book,lorry,lorry,book,mal_plain_mal_sws,critical,3/31/2017,16:39,right,true,2469,1,1_2_1_1,word_2_word_1,far,book,Clear_Before,lab,hanna,2014-10-26,,Catalan/Spanish,English,,,,,female
t6fJS,17,11,mal_plain,mal_sws,3,lorry,book,lorry,lorry,book,mal_plain_mal_sws,critical,3/31/2017,16:39,left,true,3742,2,1_2_1_1,word_2_word_1,far,lorry,Clear_Before,lab,hanna,2014-10-26,,Catalan/Spanish,English,,,,,female
t6fJS,18,19,mal_plain,mal_sws,1,santa,building_blocks,santa,building_blocks,santa,mal_plain_mal_sws,critical,3/31/2017,16:39,right,true,5937,4,2_1_2_1,word_2_word_1,far,santa,Clear_Before,lab,hanna,2014-10-26,,Catalan/Spanish,English,,,,,female
t6fJS,18,19,mal_plain,mal_sws,2,santa,building_blocks,santa,building_blocks,santa,mal_plain_mal_sws,critical,3/31/2017,16:39,right,false,7955,2,2_1_2_1,word_2_word_1,far,santa,Clear_Before,lab,hanna,2014-10-26,,Catalan/Spanish,English,,,,,female
t6fJS,18,19,mal_plain,mal_sws,3,santa,building_blocks,santa,building_blocks,santa,mal_plain_mal_sws,critical,3/31/2017,16:39,left,false,3682,1,2_1_2_1,word_2_word_1,far,building_blocks,Clear_Before,lab,hanna,2014-10-26,,Catalan/Spanish,English,,,,,female
t6fJS,19,18,mal_plain,mal_sws,1,raspberry,ball,raspberry,raspberry,ball,mal_plain_mal_sws,critical,3/31/2017,16:39,left,true,4810,2,1_2_1_1,word_2_word_1,far,raspberry,Clear_Before,lab,hanna,2014-10-26,,Catalan/Spanish,English,,,,,female
t6fJS,19,18,mal_plain,mal_sws,2,raspberry,ball,raspberry,raspberry,ball,mal_plain_mal_sws,critical,3/31/2017,16:39,left,false,4353,2,1_2_1_1,word_2_word_1,far,raspberry,Clear_Before,lab,hanna,2014-10-26,,Catalan/Spanish,English,,,,,female
t6fJS,19,18,mal_plain,mal_sws,3,raspberry,ball,raspberry,raspberry,ball,mal_plain_mal_sws,critical,3/31/2017,16:39,right,false,3142,1,1_2_1_1,word_2_word_1,far,ball,Clear_Before,lab,hanna,2014-10-26,,Catalan/Spanish,English,,,,,female
t6fJS,20,2,mal_plain,mal_sws,1,bed,chicken,chicken,bed,chicken,mal_plain_mal_sws,critical,3/31/2017,16:39,right,false,3870,2,2_1_1_1,word_1_word_2,near,chicken,Clear_Before,lab,hanna,2014-10-26,,Catalan/Spanish,English,,,,,female
t6fJS,20,2,mal_plain,mal_sws,2,bed,chicken,chicken,bed,chicken,mal_plain_mal_sws,critical,3/31/2017,16:39,left,false,3517,2,2_1_1_1,word_1_word_2,near,bed,Clear_Before,lab,hanna,2014-10-26,,Catalan/Spanish,English,,,,,female
t6fJS,20,2,mal_plain,mal_sws,3,bed,chicken,chicken,bed,chicken,mal_plain_mal_sws,critical,3/31/2017,16:39,right,true,3781,1,2_1_1_1,word_1_word_2,near,chicken,Clear_Before,lab,hanna,2014-10-26,,Catalan/Spanish,English,,,,,female
t6fJS,21,17,mal_plain,mal_sws,1,ambulance,cake,cake,cake,ambulance,mal_plain_mal_sws,critical,3/31/2017,16:39,right,true,3950,1,1_2_2_1,word_1_word_2,near,ambulance,Clear_Before,lab,hanna,2014-10-26,,Catalan/Spanish,English,,,,,female
t6fJS,21,17,mal_plain,mal_sws,2,ambulance,cake,cake,cake,ambulance,mal_plain_mal_sws,critical,3/31/2017,16:39,right,false,4247,3,1_2_2_1,word_1_word_2,near,ambulance,Clear_Before,lab,hanna,2014-10-26,,Catalan/Spanish,English,,,,,female
t6fJS,21,17,mal_plain,mal_sws,3,ambulance,cake,cake,cake,ambulance,mal_plain_mal_sws,critical,3/31/2017,16:39,left,true,2946,1,1_2_2_1,word_1_word_2,near,cake,Clear_Before,lab,hanna,2014-10-26,,Catalan/Spanish,English,,,,,female
t6fJS,22,23,mal_plain,mal_sws,1,teddy_bear,bath,teddy_bear,bath,teddy_bear,mal_plain_mal_sws,critical,3/31/2017,16:39,right,true,3939,2,2_1_2_1,word_1_word_2,far,teddy_bear,Clear_Before,lab,hanna,2014-10-26,,Catalan/Spanish,English,,,,,female
t6fJS,22,23,mal_plain,mal_sws,2,teddy_bear,bath,teddy_bear,bath,teddy_bear,mal_plain_mal_sws,critical,3/31/2017,16:39,right,false,3517,2,2_1_2_1,word_1_word_2,far,teddy_bear,Clear_Before,lab,hanna,2014-10-26,,Catalan/Spanish,English,,,,,female
t6fJS,22,23,mal_plain,mal_sws,3,teddy_bear,bath,teddy_bear,bath,teddy_bear,mal_plain_mal_sws,critical,3/31/2017,16:39,left,false,3315,1,2_1_2_1,word_1_word_2,far,bath,Clear_Before,lab,hanna,2014-10-26,,Catalan/Spanish,English,,,,,female
t6fJS,23,21,mal_plain,mal_sws,1,frog,sheep,frog,frog,sheep,mal_plain_mal_sws,critical,3/31/2017,16:39,right,false,3918,2,1_2_1_1,word_1_word_2,far,sheep,Clear_Before,lab,hanna,2014-10-26,,Catalan/Spanish,English,,,,,female
t6fJS,23,21,mal_plain,mal_sws,2,frog,sheep,frog,frog,sheep,mal_plain_mal_sws,critical,3/31/2017,16:39,left,false,3144,1,1_2_1_1,word_1_word_2,far,frog,Clear_Before,lab,hanna,2014-10-26,,Catalan/Spanish,English,,,,,female
t6fJS,23,21,mal_plain,mal_sws,3,frog,sheep,frog,frog,sheep,mal_plain_mal_sws,critical,3/31/2017,16:39,right,false,4513,1,1_2_1_1,word_1_word_2,far,sheep,Clear_Before,lab,hanna,2014-10-26,,Catalan/Spanish,English,,,,,female
t6fJS,24,13,mal_plain,mal_sws,1,airplane,toothbrush,toothbrush,toothbrush,airplane,mal_plain_mal_sws,critical,3/31/2017,16:39,right,true,4635,2,1_2_2_1,word_1_word_2,near,airplane,Clear_Before,lab,hanna,2014-10-26,,Catalan/Spanish,English,,,,,female
t6fJS,24,13,mal_plain,mal_sws,2,airplane,toothbrush,toothbrush,toothbrush,airplane,mal_plain_mal_sws,critical,3/31/2017,16:39,right,false,4325,2,1_2_2_1,word_1_word_2,near,airplane,Clear_Before,lab,hanna,2014-10-26,,Catalan/Spanish,English,,,,,female
t6fJS,24,13,mal_plain,mal_sws,3,airplane,toothbrush,toothbrush,toothbrush,airplane,mal_plain_mal_sws,critical,3/31/2017,16:39,left,true,2887,2,1_2_2_1,word_1_word_2,near,toothbrush,Clear_Before,lab,hanna,2014-10-26,,Catalan/Spanish,English,,,,,female
t6fJS,25,6,mal_plain,mal_sws,1,peas,bird,peas,bird,peas,mal_plain_mal_sws,critical,3/31/2017,16:39,left,false,3439,2,1_2_1_1,word_1_word_2,far,bird,Clear_Before,lab,hanna,2014-10-26,,Catalan/Spanish,English,,,,,female
t6fJS,25,6,mal_plain,mal_sws,2,peas,bird,peas,bird,peas,mal_plain_mal_sws,critical,3/31/2017,16:39,left,true,3479,1,1_2_1_1,word_1_word_2,far,bird,Clear_Before,lab,hanna,2014-10-26,,Catalan/Spanish,English,,,,,female
t6fJS,25,6,mal_plain,mal_sws,3,peas,bird,peas,bird,peas,mal_plain_mal_sws,critical,3/31/2017,16:39,right,true,2803,1,1_2_1_1,word_1_word_2,far,peas,Clear_Before,lab,hanna,2014-10-26,,Catalan/Spanish,English,,,,,female
