subject_id,trial_number,trial_id,plain,sws,instruction_number,sound1_item,sound2_item,sound3_item,left_image,right_image,sound_gender,trial_type,date_stamp,time_stamp,side_chosen,accuracy,rt,play_counter,order,pic_position,distance,chosen_pic,test_lang,testing_loc,tester,date_of_birth,ethnicity,native_lang,other_langs,parental_occ,dev_info,birth_order,num_siblings,gender
vdb7f,1,0,fem_plain,mal_sws,1,fireman,glasses,fireman,glasses,fireman,fem_plain_mal_sws,training,3/16/2017,10:34,right,true,9847,2,2_1_2_1,word_2_word_1,far,fireman,Clear_Before,preschool,hanna,2013-10-27,,English,,,,,,female
vdb7f,1,0,fem_plain,mal_sws,2,fireman,glasses,fireman,glasses,fireman,fem_plain_mal_sws,training,3/16/2017,10:34,left,true,3167,2,2_1_2_1,word_2_word_1,far,glasses,Clear_Before,preschool,hanna,2013-10-27,,English,,,,,,female
vdb7f,1,0,fem_plain,mal_sws,3,fireman,glasses,fireman,glasses,fireman,fem_plain_mal_sws,training,3/16/2017,10:34,right,true,5582,4,2_1_2_1,word_2_word_1,far,fireman,Clear_Before,preschool,hanna,2013-10-27,,English,,,,,,female
vdb7f,2,20,fem_plain,mal_sws,1,jumper,rabbit,rabbit,rabbit,jumper,fem_plain_mal_sws,critical,3/16/2017,10:34,right,true,2687,2,1_2_2_1,word_2_word_1,near,jumper,Clear_Before,preschool,hanna,2013-10-27,,English,,,,,,female
vdb7f,2,20,fem_plain,mal_sws,2,jumper,rabbit,rabbit,rabbit,jumper,fem_plain_mal_sws,critical,3/16/2017,10:34,left,true,2361,1,1_2_2_1,word_2_word_1,near,rabbit,Clear_Before,preschool,hanna,2013-10-27,,English,,,,,,female
vdb7f,2,20,fem_plain,mal_sws,3,jumper,rabbit,rabbit,rabbit,jumper,fem_plain_mal_sws,critical,3/16/2017,10:34,left,true,12420,6,1_2_2_1,word_2_word_1,near,rabbit,Clear_Before,preschool,hanna,2013-10-27,,English,,,,,,female
vdb7f,3,7,fem_plain,mal_sws,1,lolly,horse,lolly,lolly,horse,fem_plain_mal_sws,critical,3/16/2017,10:34,left,true,3657,2,2_1_2_1,word_1_word_2,far,lolly,Clear_Before,preschool,hanna,2013-10-27,,English,,,,,,female
vdb7f,3,7,fem_plain,mal_sws,2,lolly,horse,lolly,lolly,horse,fem_plain_mal_sws,critical,3/16/2017,10:34,right,true,2391,2,2_1_2_1,word_1_word_2,far,horse,Clear_Before,preschool,hanna,2013-10-27,,English,,,,,,female
vdb7f,3,7,fem_plain,mal_sws,3,lolly,horse,lolly,lolly,horse,fem_plain_mal_sws,critical,3/16/2017,10:34,left,true,6378,1,2_1_2_1,word_1_word_2,far,lolly,Clear_Before,preschool,hanna,2013-10-27,,English,,,,,,female
vdb7f,4,16,fem_plain,mal_sws,1,paintbrush,banana,banana,paintbrush,banana,fem_plain_mal_sws,critical,3/16/2017,10:34,left,true,3181,2,2_1_1_1,word_1_word_2,near,paintbrush,Clear_Before,preschool,hanna,2013-10-27,,English,,,,,,female
vdb7f,4,16,fem_plain,mal_sws,2,paintbrush,banana,banana,paintbrush,banana,fem_plain_mal_sws,critical,3/16/2017,10:34,right,true,2438,3,2_1_1_1,word_1_word_2,near,banana,Clear_Before,preschool,hanna,2013-10-27,,English,,,,,,female
vdb7f,4,16,fem_plain,mal_sws,3,paintbrush,banana,banana,paintbrush,banana,fem_plain_mal_sws,critical,3/16/2017,10:34,right,true,6590,2,2_1_1_1,word_1_word_2,near,banana,Clear_Before,preschool,hanna,2013-10-27,,English,,,,,,female
vdb7f,5,21,fem_plain,mal_sws,1,frog,sheep,frog,frog,sheep,fem_plain_mal_sws,critical,3/16/2017,10:34,left,true,3190,2,2_1_2_1,word_1_word_2,far,frog,Clear_Before,preschool,hanna,2013-10-27,,English,,,,,,female
vdb7f,5,21,fem_plain,mal_sws,2,frog,sheep,frog,frog,sheep,fem_plain_mal_sws,critical,3/16/2017,10:34,right,true,2391,2,2_1_2_1,word_1_word_2,far,sheep,Clear_Before,preschool,hanna,2013-10-27,,English,,,,,,female
vdb7f,5,21,fem_plain,mal_sws,3,frog,sheep,frog,frog,sheep,fem_plain_mal_sws,critical,3/16/2017,10:34,left,true,6119,2,2_1_2_1,word_1_word_2,far,frog,Clear_Before,preschool,hanna,2013-10-27,,English,,,,,,female
vdb7f,6,6,fem_plain,mal_sws,1,bird,peas,peas,peas,bird,fem_plain_mal_sws,critical,3/16/2017,10:34,right,true,2487,2,1_2_2_1,word_2_word_1,near,bird,Clear_Before,preschool,hanna,2013-10-27,,English,,,,,,female
vdb7f,6,6,fem_plain,mal_sws,2,bird,peas,peas,peas,bird,fem_plain_mal_sws,critical,3/16/2017,10:34,left,true,2160,1,1_2_2_1,word_2_word_1,near,peas,Clear_Before,preschool,hanna,2013-10-27,,English,,,,,,female
vdb7f,6,6,fem_plain,mal_sws,3,bird,peas,peas,peas,bird,fem_plain_mal_sws,critical,3/16/2017,10:34,left,true,5446,2,1_2_2_1,word_2_word_1,near,peas,Clear_Before,preschool,hanna,2013-10-27,,English,,,,,,female
vdb7f,7,22,fem_plain,mal_sws,1,dog,bike,bike,dog,bike,fem_plain_mal_sws,critical,3/16/2017,10:34,left,true,2552,1,1_2_2_1,word_2_word_1,near,dog,Clear_Before,preschool,hanna,2013-10-27,,English,,,,,,female
vdb7f,7,22,fem_plain,mal_sws,2,dog,bike,bike,dog,bike,fem_plain_mal_sws,critical,3/16/2017,10:34,right,true,2920,1,1_2_2_1,word_2_word_1,near,bike,Clear_Before,preschool,hanna,2013-10-27,,English,,,,,,female
vdb7f,7,22,fem_plain,mal_sws,3,dog,bike,bike,dog,bike,fem_plain_mal_sws,critical,3/16/2017,10:34,left,false,5756,2,1_2_2_1,word_2_word_1,near,dog,Clear_Before,preschool,hanna,2013-10-27,,English,,,,,,female
vdb7f,8,24,fem_plain,mal_sws,1,fish,sink,fish,sink,fish,fem_plain_mal_sws,critical,3/16/2017,10:34,right,true,2725,2,1_2_1_1,word_1_word_2,far,fish,Clear_Before,preschool,hanna,2013-10-27,,English,,,,,,female
vdb7f,8,24,fem_plain,mal_sws,2,fish,sink,fish,sink,fish,fem_plain_mal_sws,critical,3/16/2017,10:34,left,true,2709,1,1_2_1_1,word_1_word_2,far,sink,Clear_Before,preschool,hanna,2013-10-27,,English,,,,,,female
vdb7f,8,24,fem_plain,mal_sws,3,fish,sink,fish,sink,fish,fem_plain_mal_sws,critical,3/16/2017,10:34,right,true,13738,3,1_2_1_1,word_1_word_2,far,fish,Clear_Before,preschool,hanna,2013-10-27,,English,,,,,,female
vdb7f,9,4,fem_plain,mal_sws,1,coat,strawberry,coat,coat,strawberry,fem_plain_mal_sws,critical,3/16/2017,10:34,left,true,2833,2,1_2_1_1,word_1_word_2,far,coat,Clear_Before,preschool,hanna,2013-10-27,,English,,,,,,female
vdb7f,9,4,fem_plain,mal_sws,2,coat,strawberry,coat,coat,strawberry,fem_plain_mal_sws,critical,3/16/2017,10:34,right,true,2197,2,1_2_1_1,word_1_word_2,far,strawberry,Clear_Before,preschool,hanna,2013-10-27,,English,,,,,,female
vdb7f,9,4,fem_plain,mal_sws,3,coat,strawberry,coat,coat,strawberry,fem_plain_mal_sws,critical,3/16/2017,10:34,right,false,8803,1,1_2_1_1,word_1_word_2,far,strawberry,Clear_Before,preschool,hanna,2013-10-27,,English,,,,,,female
vdb7f,10,17,fem_plain,mal_sws,1,ambulance,cake,ambulance,ambulance,cake,fem_plain_mal_sws,critical,3/16/2017,10:34,left,true,2458,4,2_1_2_1,word_2_word_1,far,ambulance,Clear_Before,preschool,hanna,2013-10-27,,English,,,,,,female
vdb7f,10,17,fem_plain,mal_sws,2,ambulance,cake,ambulance,ambulance,cake,fem_plain_mal_sws,critical,3/16/2017,10:34,right,true,2681,1,2_1_2_1,word_2_word_1,far,cake,Clear_Before,preschool,hanna,2013-10-27,,English,,,,,,female
vdb7f,10,17,fem_plain,mal_sws,3,ambulance,cake,ambulance,ambulance,cake,fem_plain_mal_sws,critical,3/16/2017,10:34,right,false,8832,2,2_1_2_1,word_2_word_1,far,cake,Clear_Before,preschool,hanna,2013-10-27,,English,,,,,,female
vdb7f,11,11,fem_plain,mal_sws,1,book,lorry,lorry,book,lorry,fem_plain_mal_sws,critical,3/16/2017,10:34,left,true,3061,2,1_2_2_1,word_1_word_2,near,book,Clear_Before,preschool,hanna,2013-10-27,,English,,,,,,female
vdb7f,11,11,fem_plain,mal_sws,2,book,lorry,lorry,book,lorry,fem_plain_mal_sws,critical,3/16/2017,10:34,right,true,2368,1,1_2_2_1,word_1_word_2,near,lorry,Clear_Before,preschool,hanna,2013-10-27,,English,,,,,,female
vdb7f,11,11,fem_plain,mal_sws,3,book,lorry,lorry,book,lorry,fem_plain_mal_sws,critical,3/16/2017,10:34,left,false,13588,1,1_2_2_1,word_1_word_2,near,book,Clear_Before,preschool,hanna,2013-10-27,,English,,,,,,female
vdb7f,12,9,fem_plain,mal_sws,1,window,pizza,window,pizza,window,fem_plain_mal_sws,critical,3/16/2017,10:34,right,true,3073,1,1_2_1_1,word_1_word_2,far,window,Clear_Before,preschool,hanna,2013-10-27,,English,,,,,,female
vdb7f,12,9,fem_plain,mal_sws,2,window,pizza,window,pizza,window,fem_plain_mal_sws,critical,3/16/2017,10:34,left,true,2356,1,1_2_1_1,word_1_word_2,far,pizza,Clear_Before,preschool,hanna,2013-10-27,,English,,,,,,female
vdb7f,12,9,fem_plain,mal_sws,3,window,pizza,window,pizza,window,fem_plain_mal_sws,critical,3/16/2017,10:34,left,false,8656,5,1_2_1_1,word_1_word_2,far,pizza,Clear_Before,preschool,hanna,2013-10-27,,English,,,,,,female
vdb7f,13,10,fem_plain,mal_sws,1,tshirt,pig,pig,tshirt,pig,fem_plain_mal_sws,critical,3/16/2017,10:34,left,true,3905,1,2_1_1_1,word_2_word_1,near,tshirt,Clear_Before,preschool,hanna,2013-10-27,,English,,,,,,female
vdb7f,13,10,fem_plain,mal_sws,2,tshirt,pig,pig,tshirt,pig,fem_plain_mal_sws,critical,3/16/2017,10:34,right,true,1912,1,2_1_1_1,word_2_word_1,near,pig,Clear_Before,preschool,hanna,2013-10-27,,English,,,,,,female
vdb7f,13,10,fem_plain,mal_sws,3,tshirt,pig,pig,tshirt,pig,fem_plain_mal_sws,critical,3/16/2017,10:34,left,false,12021,1,2_1_1_1,word_2_word_1,near,tshirt,Clear_Before,preschool,hanna,2013-10-27,,English,,,,,,female
vdb7f,14,12,fem_plain,mal_sws,1,foot,yoghurt,yoghurt,yoghurt,foot,fem_plain_mal_sws,critical,3/16/2017,10:34,right,true,3002,1,2_1_1_1,word_2_word_1,near,foot,Clear_Before,preschool,hanna,2013-10-27,,English,,,,,,female
vdb7f,14,12,fem_plain,mal_sws,2,foot,yoghurt,yoghurt,yoghurt,foot,fem_plain_mal_sws,critical,3/16/2017,10:34,left,true,2465,1,2_1_1_1,word_2_word_1,near,yoghurt,Clear_Before,preschool,hanna,2013-10-27,,English,,,,,,female
vdb7f,14,12,fem_plain,mal_sws,3,foot,yoghurt,yoghurt,yoghurt,foot,fem_plain_mal_sws,critical,3/16/2017,10:34,right,false,4429,1,2_1_1_1,word_2_word_1,near,foot,Clear_Before,preschool,hanna,2013-10-27,,English,,,,,,female
vdb7f,15,13,fem_plain,mal_sws,1,airplane,toothbrush,toothbrush,toothbrush,airplane,fem_plain_mal_sws,critical,3/16/2017,10:34,right,true,2838,4,2_1_1_1,word_1_word_2,near,airplane,Clear_Before,preschool,hanna,2013-10-27,,English,,,,,,female
vdb7f,15,13,fem_plain,mal_sws,2,airplane,toothbrush,toothbrush,toothbrush,airplane,fem_plain_mal_sws,critical,3/16/2017,10:34,left,true,2491,1,2_1_1_1,word_1_word_2,near,toothbrush,Clear_Before,preschool,hanna,2013-10-27,,English,,,,,,female
vdb7f,15,13,fem_plain,mal_sws,3,airplane,toothbrush,toothbrush,toothbrush,airplane,fem_plain_mal_sws,critical,3/16/2017,10:34,left,true,7152,2,2_1_1_1,word_1_word_2,near,toothbrush,Clear_Before,preschool,hanna,2013-10-27,,English,,,,,,female
vdb7f,16,3,fem_plain,mal_sws,1,trousers,nose,nose,trousers,nose,fem_plain_mal_sws,critical,3/16/2017,10:34,left,true,2366,2,2_1_1_1,word_1_word_2,near,trousers,Clear_Before,preschool,hanna,2013-10-27,,English,,,,,,female
vdb7f,16,3,fem_plain,mal_sws,2,trousers,nose,nose,trousers,nose,fem_plain_mal_sws,critical,3/16/2017,10:34,right,true,2763,1,2_1_1_1,word_1_word_2,near,nose,Clear_Before,preschool,hanna,2013-10-27,,English,,,,,,female
vdb7f,16,3,fem_plain,mal_sws,3,trousers,nose,nose,trousers,nose,fem_plain_mal_sws,critical,3/16/2017,10:34,right,true,8209,2,2_1_1_1,word_1_word_2,near,nose,Clear_Before,preschool,hanna,2013-10-27,,English,,,,,,female
vdb7f,17,23,fem_plain,mal_sws,1,bath,teddy_bear,bath,teddy_bear,bath,fem_plain_mal_sws,critical,3/16/2017,10:34,right,true,2897,2,1_2_1_1,word_2_word_1,far,bath,Clear_Before,preschool,hanna,2013-10-27,,English,,,,,,female
vdb7f,17,23,fem_plain,mal_sws,2,bath,teddy_bear,bath,teddy_bear,bath,fem_plain_mal_sws,critical,3/16/2017,10:34,left,true,2269,1,1_2_1_1,word_2_word_1,far,teddy_bear,Clear_Before,preschool,hanna,2013-10-27,,English,,,,,,female
vdb7f,17,23,fem_plain,mal_sws,3,bath,teddy_bear,bath,teddy_bear,bath,fem_plain_mal_sws,critical,3/16/2017,10:34,left,false,6292,2,1_2_1_1,word_2_word_1,far,teddy_bear,Clear_Before,preschool,hanna,2013-10-27,,English,,,,,,female
vdb7f,18,8,fem_plain,mal_sws,1,wellyboots,fire_engine,wellyboots,fire_engine,wellyboots,fem_plain_mal_sws,critical,3/16/2017,10:34,right,true,4701,2,2_1_2_1,word_2_word_1,far,wellyboots,Clear_Before,preschool,hanna,2013-10-27,,English,,,,,,female
vdb7f,18,8,fem_plain,mal_sws,2,wellyboots,fire_engine,wellyboots,fire_engine,wellyboots,fem_plain_mal_sws,critical,3/16/2017,10:34,right,false,3657,2,2_1_2_1,word_2_word_1,far,wellyboots,Clear_Before,preschool,hanna,2013-10-27,,English,,,,,,female
vdb7f,18,8,fem_plain,mal_sws,3,wellyboots,fire_engine,wellyboots,fire_engine,wellyboots,fem_plain_mal_sws,critical,3/16/2017,10:34,left,false,3091,1,2_1_2_1,word_2_word_1,far,fire_engine,Clear_Before,preschool,hanna,2013-10-27,,English,,,,,,female
vdb7f,19,19,fem_plain,mal_sws,1,santa,building_blocks,building_blocks,santa,building_blocks,fem_plain_mal_sws,critical,3/16/2017,10:34,right,false,6039,2,1_2_2_1,word_1_word_2,near,building_blocks,Clear_Before,preschool,hanna,2013-10-27,,English,,,,,,female
vdb7f,19,19,fem_plain,mal_sws,2,santa,building_blocks,building_blocks,santa,building_blocks,fem_plain_mal_sws,critical,3/16/2017,10:34,left,false,2769,2,1_2_2_1,word_1_word_2,near,santa,Clear_Before,preschool,hanna,2013-10-27,,English,,,,,,female
vdb7f,19,19,fem_plain,mal_sws,3,santa,building_blocks,building_blocks,santa,building_blocks,fem_plain_mal_sws,critical,3/16/2017,10:34,right,true,2878,2,1_2_2_1,word_1_word_2,near,building_blocks,Clear_Before,preschool,hanna,2013-10-27,,English,,,,,,female
vdb7f,20,2,fem_plain,mal_sws,1,chicken,bed,chicken,bed,chicken,fem_plain_mal_sws,critical,3/16/2017,10:34,right,true,3550,2,1_2_1_1,word_1_word_2,far,chicken,Clear_Before,preschool,hanna,2013-10-27,,English,,,,,,female
vdb7f,20,2,fem_plain,mal_sws,2,chicken,bed,chicken,bed,chicken,fem_plain_mal_sws,critical,3/16/2017,10:34,right,false,4160,1,1_2_1_1,word_1_word_2,far,chicken,Clear_Before,preschool,hanna,2013-10-27,,English,,,,,,female
vdb7f,20,2,fem_plain,mal_sws,3,chicken,bed,chicken,bed,chicken,fem_plain_mal_sws,critical,3/16/2017,10:34,left,false,2880,1,1_2_1_1,word_1_word_2,far,bed,Clear_Before,preschool,hanna,2013-10-27,,English,,,,,,female
vdb7f,21,5,fem_plain,mal_sws,1,orange,car,orange,car,orange,fem_plain_mal_sws,critical,3/16/2017,10:34,right,true,4284,2,1_2_1_1,word_2_word_1,far,orange,Clear_Before,preschool,hanna,2013-10-27,,English,,,,,,female
vdb7f,21,5,fem_plain,mal_sws,2,orange,car,orange,car,orange,fem_plain_mal_sws,critical,3/16/2017,10:34,right,false,2807,1,1_2_1_1,word_2_word_1,far,orange,Clear_Before,preschool,hanna,2013-10-27,,English,,,,,,female
vdb7f,21,5,fem_plain,mal_sws,3,orange,car,orange,car,orange,fem_plain_mal_sws,critical,3/16/2017,10:34,left,false,2430,1,1_2_1_1,word_2_word_1,far,car,Clear_Before,preschool,hanna,2013-10-27,,English,,,,,,female
vdb7f,22,18,fem_plain,mal_sws,1,raspberry,ball,ball,ball,raspberry,fem_plain_mal_sws,critical,3/16/2017,10:34,left,false,3686,2,2_1_1_1,word_1_word_2,near,ball,Clear_Before,preschool,hanna,2013-10-27,,English,,,,,,female
vdb7f,22,18,fem_plain,mal_sws,2,raspberry,ball,ball,ball,raspberry,fem_plain_mal_sws,critical,3/16/2017,10:34,right,false,4273,1,2_1_1_1,word_1_word_2,near,raspberry,Clear_Before,preschool,hanna,2013-10-27,,English,,,,,,female
vdb7f,22,18,fem_plain,mal_sws,3,raspberry,ball,ball,ball,raspberry,fem_plain_mal_sws,critical,3/16/2017,10:34,left,true,4953,2,2_1_1_1,word_1_word_2,near,ball,Clear_Before,preschool,hanna,2013-10-27,,English,,,,,,female
vdb7f,23,1,fem_plain,mal_sws,1,baby,spoon,spoon,baby,spoon,fem_plain_mal_sws,critical,3/16/2017,10:34,right,false,2701,2,1_2_2_1,word_2_word_1,near,spoon,Clear_Before,preschool,hanna,2013-10-27,,English,,,,,,female
vdb7f,23,1,fem_plain,mal_sws,2,baby,spoon,spoon,baby,spoon,fem_plain_mal_sws,critical,3/16/2017,10:34,left,false,2376,1,1_2_2_1,word_2_word_1,near,baby,Clear_Before,preschool,hanna,2013-10-27,,English,,,,,,female
vdb7f,23,1,fem_plain,mal_sws,3,baby,spoon,spoon,baby,spoon,fem_plain_mal_sws,critical,3/16/2017,10:34,right,true,2481,1,1_2_2_1,word_2_word_1,near,spoon,Clear_Before,preschool,hanna,2013-10-27,,English,,,,,,female
vdb7f,24,14,fem_plain,mal_sws,1,cheese,shoes,cheese,shoes,cheese,fem_plain_mal_sws,critical,3/16/2017,10:34,right,true,3330,2,2_1_2_1,word_2_word_1,far,cheese,Clear_Before,preschool,hanna,2013-10-27,,English,,,,,,female
vdb7f,24,14,fem_plain,mal_sws,2,cheese,shoes,cheese,shoes,cheese,fem_plain_mal_sws,critical,3/16/2017,10:34,right,false,2765,1,2_1_2_1,word_2_word_1,far,cheese,Clear_Before,preschool,hanna,2013-10-27,,English,,,,,,female
vdb7f,24,14,fem_plain,mal_sws,3,cheese,shoes,cheese,shoes,cheese,fem_plain_mal_sws,critical,3/16/2017,10:34,left,false,2305,2,2_1_2_1,word_2_word_1,far,shoes,Clear_Before,preschool,hanna,2013-10-27,,English,,,,,,female
vdb7f,25,15,fem_plain,mal_sws,1,slide,pencil,slide,pencil,slide,fem_plain_mal_sws,critical,3/16/2017,10:34,right,true,3328,4,1_2_1_1,word_2_word_1,far,slide,Clear_Before,preschool,hanna,2013-10-27,,English,,,,,,female
vdb7f,25,15,fem_plain,mal_sws,2,slide,pencil,slide,pencil,slide,fem_plain_mal_sws,critical,3/16/2017,10:34,right,false,6388,2,1_2_1_1,word_2_word_1,far,slide,Clear_Before,preschool,hanna,2013-10-27,,English,,,,,,female
vdb7f,25,15,fem_plain,mal_sws,3,slide,pencil,slide,pencil,slide,fem_plain_mal_sws,critical,3/16/2017,10:34,left,false,1864,1,1_2_1_1,word_2_word_1,far,pencil,Clear_Before,preschool,hanna,2013-10-27,,English,,,,,,female
