subject_id,trial_number,trial_id,plain,sws,instruction_number,sound1_item,sound2_item,sound3_item,left_image,right_image,sound_gender,trial_type,date_stamp,time_stamp,side_chosen,accuracy,rt,play_counter,order,pic_position,distance,chosen_pic,test_lang,testing_loc,tester,date_of_birth,ethnicity,native_lang,other_langs,parental_occ,dev_info,birth_order,num_siblings,gender
VlMJS,1,0,mal_plain,fem_sws,1,glasses,fireman,fireman,fireman,glasses,mal_plain_fem_sws,training,3/9/2017,9:50,left,false,10752,4,2_1_1_1,word_1_word_2,near,fireman,Clear_After,preschool,hanna,2013-09-13,,English,French,,,,0,male
VlMJS,1,0,mal_plain,fem_sws,2,glasses,fireman,fireman,fireman,glasses,mal_plain_fem_sws,training,3/9/2017,9:50,right,false,3168,2,2_1_1_1,word_1_word_2,near,glasses,Clear_After,preschool,hanna,2013-09-13,,English,French,,,,0,male
VlMJS,1,0,mal_plain,fem_sws,3,glasses,fireman,fireman,fireman,glasses,mal_plain_fem_sws,training,3/9/2017,9:50,left,true,2666,2,2_1_1_1,word_1_word_2,near,fireman,Clear_After,preschool,hanna,2013-09-13,,English,French,,,,0,male
VlMJS,2,21,mal_plain,fem_sws,1,sheep,frog,frog,frog,sheep,mal_plain_fem_sws,critical,3/9/2017,9:50,left,false,10843,4,1_2_2_1,word_1_word_2,near,frog,Clear_After,preschool,hanna,2013-09-13,,English,French,,,,0,male
VlMJS,2,21,mal_plain,fem_sws,2,sheep,frog,frog,frog,sheep,mal_plain_fem_sws,critical,3/9/2017,9:50,right,false,2730,2,1_2_2_1,word_1_word_2,near,sheep,Clear_After,preschool,hanna,2013-09-13,,English,French,,,,0,male
VlMJS,2,21,mal_plain,fem_sws,3,sheep,frog,frog,frog,sheep,mal_plain_fem_sws,critical,3/9/2017,9:50,left,true,3127,1,1_2_2_1,word_1_word_2,near,frog,Clear_After,preschool,hanna,2013-09-13,,English,French,,,,0,male
VlMJS,3,14,mal_plain,fem_sws,1,cheese,shoes,shoes,cheese,shoes,mal_plain_fem_sws,critical,3/9/2017,9:50,left,true,7134,4,1_2_2_1,word_1_word_2,near,cheese,Clear_After,preschool,hanna,2013-09-13,,English,French,,,,0,male
VlMJS,3,14,mal_plain,fem_sws,2,cheese,shoes,shoes,cheese,shoes,mal_plain_fem_sws,critical,3/9/2017,9:50,left,false,5782,2,1_2_2_1,word_1_word_2,near,cheese,Clear_After,preschool,hanna,2013-09-13,,English,French,,,,0,male
VlMJS,3,14,mal_plain,fem_sws,3,cheese,shoes,shoes,cheese,shoes,mal_plain_fem_sws,critical,3/9/2017,9:50,right,true,2550,1,1_2_2_1,word_1_word_2,near,shoes,Clear_After,preschool,hanna,2013-09-13,,English,French,,,,0,male
VlMJS,4,24,mal_plain,fem_sws,1,sink,fish,fish,sink,fish,mal_plain_fem_sws,critical,3/9/2017,9:50,right,false,8105,4,2_1_1_1,word_1_word_2,near,fish,Clear_After,preschool,hanna,2013-09-13,,English,French,,,,0,male
VlMJS,4,24,mal_plain,fem_sws,2,sink,fish,fish,sink,fish,mal_plain_fem_sws,critical,3/9/2017,9:50,left,false,3306,2,2_1_1_1,word_1_word_2,near,sink,Clear_After,preschool,hanna,2013-09-13,,English,French,,,,0,male
VlMJS,4,24,mal_plain,fem_sws,3,sink,fish,fish,sink,fish,mal_plain_fem_sws,critical,3/9/2017,9:50,right,true,2363,1,2_1_1_1,word_1_word_2,near,fish,Clear_After,preschool,hanna,2013-09-13,,English,French,,,,0,male
VlMJS,5,19,mal_plain,fem_sws,1,santa,building_blocks,santa,santa,building_blocks,mal_plain_fem_sws,critical,3/9/2017,9:50,right,false,11422,2,2_1_2_1,word_1_word_2,far,building_blocks,Clear_After,preschool,hanna,2013-09-13,,English,French,,,,0,male
VlMJS,5,19,mal_plain,fem_sws,2,santa,building_blocks,santa,santa,building_blocks,mal_plain_fem_sws,critical,3/9/2017,9:50,left,false,2829,2,2_1_2_1,word_1_word_2,far,santa,Clear_After,preschool,hanna,2013-09-13,,English,French,,,,0,male
VlMJS,5,19,mal_plain,fem_sws,3,santa,building_blocks,santa,santa,building_blocks,mal_plain_fem_sws,critical,3/9/2017,9:50,right,false,2359,2,2_1_2_1,word_1_word_2,far,building_blocks,Clear_After,preschool,hanna,2013-09-13,,English,French,,,,0,male
VlMJS,6,2,mal_plain,fem_sws,1,chicken,bed,bed,bed,chicken,mal_plain_fem_sws,critical,3/9/2017,9:50,left,false,11085,4,2_1_1_1,word_1_word_2,near,bed,Clear_After,preschool,hanna,2013-09-13,,English,French,,,,0,male
VlMJS,6,2,mal_plain,fem_sws,2,chicken,bed,bed,bed,chicken,mal_plain_fem_sws,critical,3/9/2017,9:50,right,false,2866,2,2_1_1_1,word_1_word_2,near,chicken,Clear_After,preschool,hanna,2013-09-13,,English,French,,,,0,male
VlMJS,6,2,mal_plain,fem_sws,3,chicken,bed,bed,bed,chicken,mal_plain_fem_sws,critical,3/9/2017,9:50,left,true,3012,1,2_1_1_1,word_1_word_2,near,bed,Clear_After,preschool,hanna,2013-09-13,,English,French,,,,0,male
VlMJS,7,20,mal_plain,fem_sws,1,rabbit,jumper,jumper,jumper,rabbit,mal_plain_fem_sws,critical,3/9/2017,9:50,right,true,6937,2,2_1_1_1,word_1_word_2,near,rabbit,Clear_After,preschool,hanna,2013-09-13,,English,French,,,,0,male
VlMJS,7,20,mal_plain,fem_sws,2,rabbit,jumper,jumper,jumper,rabbit,mal_plain_fem_sws,critical,3/9/2017,9:50,right,false,2601,1,2_1_1_1,word_1_word_2,near,rabbit,Clear_After,preschool,hanna,2013-09-13,,English,French,,,,0,male
VlMJS,7,20,mal_plain,fem_sws,3,rabbit,jumper,jumper,jumper,rabbit,mal_plain_fem_sws,critical,3/9/2017,9:50,left,true,2546,2,2_1_1_1,word_1_word_2,near,jumper,Clear_After,preschool,hanna,2013-09-13,,English,French,,,,0,male
VlMJS,8,17,mal_plain,fem_sws,1,ambulance,cake,ambulance,cake,ambulance,mal_plain_fem_sws,critical,3/9/2017,9:50,right,true,8565,4,1_2_1_1,word_1_word_2,far,ambulance,Clear_After,preschool,hanna,2013-09-13,,English,French,,,,0,male
VlMJS,8,17,mal_plain,fem_sws,2,ambulance,cake,ambulance,cake,ambulance,mal_plain_fem_sws,critical,3/9/2017,9:50,right,false,2604,1,1_2_1_1,word_1_word_2,far,ambulance,Clear_After,preschool,hanna,2013-09-13,,English,French,,,,0,male
VlMJS,8,17,mal_plain,fem_sws,3,ambulance,cake,ambulance,cake,ambulance,mal_plain_fem_sws,critical,3/9/2017,9:50,left,false,2725,2,1_2_1_1,word_1_word_2,far,cake,Clear_After,preschool,hanna,2013-09-13,,English,French,,,,0,male
VlMJS,9,5,mal_plain,fem_sws,1,car,orange,car,orange,car,mal_plain_fem_sws,critical,3/9/2017,9:50,right,true,8054,2,1_2_1_1,word_1_word_2,far,car,Clear_After,preschool,hanna,2013-09-13,,English,French,,,,0,male
VlMJS,9,5,mal_plain,fem_sws,2,car,orange,car,orange,car,mal_plain_fem_sws,critical,3/9/2017,9:50,right,false,2128,1,1_2_1_1,word_1_word_2,far,car,Clear_After,preschool,hanna,2013-09-13,,English,French,,,,0,male
VlMJS,9,5,mal_plain,fem_sws,3,car,orange,car,orange,car,mal_plain_fem_sws,critical,3/9/2017,9:50,left,false,2806,1,1_2_1_1,word_1_word_2,far,orange,Clear_After,preschool,hanna,2013-09-13,,English,French,,,,0,male
VlMJS,10,7,mal_plain,fem_sws,1,horse,lolly,horse,horse,lolly,mal_plain_fem_sws,critical,3/9/2017,9:50,left,true,5859,2,2_1_2_1,word_2_word_1,far,horse,Clear_After,preschool,hanna,2013-09-13,,English,French,,,,0,male
VlMJS,10,7,mal_plain,fem_sws,2,horse,lolly,horse,horse,lolly,mal_plain_fem_sws,critical,3/9/2017,9:50,left,false,2795,1,2_1_2_1,word_2_word_1,far,horse,Clear_After,preschool,hanna,2013-09-13,,English,French,,,,0,male
VlMJS,10,7,mal_plain,fem_sws,3,horse,lolly,horse,horse,lolly,mal_plain_fem_sws,critical,3/9/2017,9:50,right,false,3119,2,2_1_2_1,word_2_word_1,far,lolly,Clear_After,preschool,hanna,2013-09-13,,English,French,,,,0,male
VlMJS,11,18,mal_plain,fem_sws,1,raspberry,ball,raspberry,ball,raspberry,mal_plain_fem_sws,critical,3/9/2017,9:50,right,true,6508,2,2_1_2_1,word_1_word_2,far,raspberry,Clear_After,preschool,hanna,2013-09-13,,English,French,,,,0,male
VlMJS,11,18,mal_plain,fem_sws,2,raspberry,ball,raspberry,ball,raspberry,mal_plain_fem_sws,critical,3/9/2017,9:50,right,false,3198,1,2_1_2_1,word_1_word_2,far,raspberry,Clear_After,preschool,hanna,2013-09-13,,English,French,,,,0,male
VlMJS,11,18,mal_plain,fem_sws,3,raspberry,ball,raspberry,ball,raspberry,mal_plain_fem_sws,critical,3/9/2017,9:50,left,false,2351,1,2_1_2_1,word_1_word_2,far,ball,Clear_After,preschool,hanna,2013-09-13,,English,French,,,,0,male
VlMJS,12,13,mal_plain,fem_sws,1,airplane,toothbrush,toothbrush,toothbrush,airplane,mal_plain_fem_sws,critical,3/9/2017,9:50,right,true,5047,2,2_1_1_1,word_1_word_2,near,airplane,Clear_After,preschool,hanna,2013-09-13,,English,French,,,,0,male
VlMJS,12,13,mal_plain,fem_sws,2,airplane,toothbrush,toothbrush,toothbrush,airplane,mal_plain_fem_sws,critical,3/9/2017,9:50,right,false,2432,2,2_1_1_1,word_1_word_2,near,airplane,Clear_After,preschool,hanna,2013-09-13,,English,French,,,,0,male
VlMJS,12,13,mal_plain,fem_sws,3,airplane,toothbrush,toothbrush,toothbrush,airplane,mal_plain_fem_sws,critical,3/9/2017,9:50,left,true,2602,1,2_1_1_1,word_1_word_2,near,toothbrush,Clear_After,preschool,hanna,2013-09-13,,English,French,,,,0,male
VlMJS,13,1,mal_plain,fem_sws,1,spoon,baby,spoon,spoon,baby,mal_plain_fem_sws,critical,3/9/2017,9:50,right,false,3702,2,2_1_2_1,word_1_word_2,far,baby,Clear_After,preschool,hanna,2013-09-13,,English,French,,,,0,male
VlMJS,13,1,mal_plain,fem_sws,2,spoon,baby,spoon,spoon,baby,mal_plain_fem_sws,critical,3/9/2017,9:50,left,false,2424,1,2_1_2_1,word_1_word_2,far,spoon,Clear_After,preschool,hanna,2013-09-13,,English,French,,,,0,male
VlMJS,13,1,mal_plain,fem_sws,3,spoon,baby,spoon,spoon,baby,mal_plain_fem_sws,critical,3/9/2017,9:50,right,false,2031,1,2_1_2_1,word_1_word_2,far,baby,Clear_After,preschool,hanna,2013-09-13,,English,French,,,,0,male
VlMJS,14,6,mal_plain,fem_sws,1,bird,peas,peas,bird,peas,mal_plain_fem_sws,critical,3/9/2017,9:50,right,false,3963,2,1_2_2_1,word_1_word_2,near,peas,Clear_After,preschool,hanna,2013-09-13,,English,French,,,,0,male
VlMJS,14,6,mal_plain,fem_sws,2,bird,peas,peas,bird,peas,mal_plain_fem_sws,critical,3/9/2017,9:50,left,false,2404,1,1_2_2_1,word_1_word_2,near,bird,Clear_After,preschool,hanna,2013-09-13,,English,French,,,,0,male
VlMJS,14,6,mal_plain,fem_sws,3,bird,peas,peas,bird,peas,mal_plain_fem_sws,critical,3/9/2017,9:50,right,true,2109,1,1_2_2_1,word_1_word_2,near,peas,Clear_After,preschool,hanna,2013-09-13,,English,French,,,,0,male
VlMJS,15,9,mal_plain,fem_sws,1,pizza,window,pizza,pizza,window,mal_plain_fem_sws,critical,3/9/2017,9:50,left,true,3128,2,1_2_1_1,word_1_word_2,far,pizza,Clear_After,preschool,hanna,2013-09-13,,English,French,,,,0,male
VlMJS,15,9,mal_plain,fem_sws,2,pizza,window,pizza,pizza,window,mal_plain_fem_sws,critical,3/9/2017,9:50,left,false,2596,2,1_2_1_1,word_1_word_2,far,pizza,Clear_After,preschool,hanna,2013-09-13,,English,French,,,,0,male
VlMJS,15,9,mal_plain,fem_sws,3,pizza,window,pizza,pizza,window,mal_plain_fem_sws,critical,3/9/2017,9:50,right,false,2507,1,1_2_1_1,word_1_word_2,far,window,Clear_After,preschool,hanna,2013-09-13,,English,French,,,,0,male
VlMJS,16,4,mal_plain,fem_sws,1,strawberry,coat,strawberry,strawberry,coat,mal_plain_fem_sws,critical,3/9/2017,9:50,left,true,3643,2,1_2_1_1,word_2_word_1,far,strawberry,Clear_After,preschool,hanna,2013-09-13,,English,French,,,,0,male
VlMJS,16,4,mal_plain,fem_sws,2,strawberry,coat,strawberry,strawberry,coat,mal_plain_fem_sws,critical,3/9/2017,9:50,left,false,3462,2,1_2_1_1,word_2_word_1,far,strawberry,Clear_After,preschool,hanna,2013-09-13,,English,French,,,,0,male
VlMJS,16,4,mal_plain,fem_sws,3,strawberry,coat,strawberry,strawberry,coat,mal_plain_fem_sws,critical,3/9/2017,9:50,right,false,2860,2,1_2_1_1,word_2_word_1,far,coat,Clear_After,preschool,hanna,2013-09-13,,English,French,,,,0,male
VlMJS,17,8,mal_plain,fem_sws,1,fire_engine,wellyboots,fire_engine,wellyboots,fire_engine,mal_plain_fem_sws,critical,3/9/2017,9:50,right,true,3131,2,1_2_1_1,word_1_word_2,far,fire_engine,Clear_After,preschool,hanna,2013-09-13,,English,French,,,,0,male
VlMJS,17,8,mal_plain,fem_sws,2,fire_engine,wellyboots,fire_engine,wellyboots,fire_engine,mal_plain_fem_sws,critical,3/9/2017,9:50,right,false,2931,4,1_2_1_1,word_1_word_2,far,fire_engine,Clear_After,preschool,hanna,2013-09-13,,English,French,,,,0,male
VlMJS,17,8,mal_plain,fem_sws,3,fire_engine,wellyboots,fire_engine,wellyboots,fire_engine,mal_plain_fem_sws,critical,3/9/2017,9:50,left,false,2784,1,1_2_1_1,word_1_word_2,far,wellyboots,Clear_After,preschool,hanna,2013-09-13,,English,French,,,,0,male
VlMJS,18,10,mal_plain,fem_sws,1,pig,tshirt,pig,tshirt,pig,mal_plain_fem_sws,critical,3/9/2017,9:50,right,true,3590,2,1_2_1_1,word_2_word_1,far,pig,Clear_After,preschool,hanna,2013-09-13,,English,French,,,,0,male
VlMJS,18,10,mal_plain,fem_sws,2,pig,tshirt,pig,tshirt,pig,mal_plain_fem_sws,critical,3/9/2017,9:50,right,false,2685,3,1_2_1_1,word_2_word_1,far,pig,Clear_After,preschool,hanna,2013-09-13,,English,French,,,,0,male
VlMJS,18,10,mal_plain,fem_sws,3,pig,tshirt,pig,tshirt,pig,mal_plain_fem_sws,critical,3/9/2017,9:50,left,false,3043,2,1_2_1_1,word_2_word_1,far,tshirt,Clear_After,preschool,hanna,2013-09-13,,English,French,,,,0,male
VlMJS,19,23,mal_plain,fem_sws,1,bath,teddy_bear,bath,bath,teddy_bear,mal_plain_fem_sws,critical,3/9/2017,9:50,right,false,5420,2,2_1_2_1,word_1_word_2,far,teddy_bear,Clear_After,preschool,hanna,2013-09-13,,English,French,,,,0,male
VlMJS,19,23,mal_plain,fem_sws,2,bath,teddy_bear,bath,bath,teddy_bear,mal_plain_fem_sws,critical,3/9/2017,9:50,left,false,3008,1,2_1_2_1,word_1_word_2,far,bath,Clear_After,preschool,hanna,2013-09-13,,English,French,,,,0,male
VlMJS,19,23,mal_plain,fem_sws,3,bath,teddy_bear,bath,bath,teddy_bear,mal_plain_fem_sws,critical,3/9/2017,9:50,right,false,2481,2,2_1_2_1,word_1_word_2,far,teddy_bear,Clear_After,preschool,hanna,2013-09-13,,English,French,,,,0,male
VlMJS,20,12,mal_plain,fem_sws,1,foot,yoghurt,yoghurt,foot,yoghurt,mal_plain_fem_sws,critical,3/9/2017,9:50,left,true,4535,2,1_2_2_1,word_1_word_2,near,foot,Clear_After,preschool,hanna,2013-09-13,,English,French,,,,0,male
VlMJS,20,12,mal_plain,fem_sws,2,foot,yoghurt,yoghurt,foot,yoghurt,mal_plain_fem_sws,critical,3/9/2017,9:50,left,false,3086,2,1_2_2_1,word_1_word_2,near,foot,Clear_After,preschool,hanna,2013-09-13,,English,French,,,,0,male
VlMJS,20,12,mal_plain,fem_sws,3,foot,yoghurt,yoghurt,foot,yoghurt,mal_plain_fem_sws,critical,3/9/2017,9:50,right,true,3338,1,1_2_2_1,word_1_word_2,near,yoghurt,Clear_After,preschool,hanna,2013-09-13,,English,French,,,,0,male
VlMJS,21,3,mal_plain,fem_sws,1,trousers,nose,trousers,trousers,nose,mal_plain_fem_sws,critical,3/9/2017,9:50,left,true,2654,4,2_1_2_1,word_1_word_2,far,trousers,Clear_After,preschool,hanna,2013-09-13,,English,French,,,,0,male
VlMJS,21,3,mal_plain,fem_sws,2,trousers,nose,trousers,trousers,nose,mal_plain_fem_sws,critical,3/9/2017,9:50,left,false,2758,1,2_1_2_1,word_1_word_2,far,trousers,Clear_After,preschool,hanna,2013-09-13,,English,French,,,,0,male
VlMJS,21,3,mal_plain,fem_sws,3,trousers,nose,trousers,trousers,nose,mal_plain_fem_sws,critical,3/9/2017,9:50,right,false,2698,2,2_1_2_1,word_1_word_2,far,nose,Clear_After,preschool,hanna,2013-09-13,,English,French,,,,0,male
VlMJS,22,22,mal_plain,fem_sws,1,bike,dog,dog,bike,dog,mal_plain_fem_sws,critical,3/9/2017,9:50,left,true,3416,2,2_1_1_1,word_1_word_2,near,bike,Clear_After,preschool,hanna,2013-09-13,,English,French,,,,0,male
VlMJS,22,22,mal_plain,fem_sws,2,bike,dog,dog,bike,dog,mal_plain_fem_sws,critical,3/9/2017,9:50,left,false,2658,2,2_1_1_1,word_1_word_2,near,bike,Clear_After,preschool,hanna,2013-09-13,,English,French,,,,0,male
VlMJS,22,22,mal_plain,fem_sws,3,bike,dog,dog,bike,dog,mal_plain_fem_sws,critical,3/9/2017,9:50,right,true,2242,1,2_1_1_1,word_1_word_2,near,dog,Clear_After,preschool,hanna,2013-09-13,,English,French,,,,0,male
VlMJS,23,11,mal_plain,fem_sws,1,lorry,book,book,lorry,book,mal_plain_fem_sws,critical,3/9/2017,9:50,left,true,2836,2,1_2_2_1,word_2_word_1,near,lorry,Clear_After,preschool,hanna,2013-09-13,,English,French,,,,0,male
VlMJS,23,11,mal_plain,fem_sws,2,lorry,book,book,lorry,book,mal_plain_fem_sws,critical,3/9/2017,9:50,left,false,3028,2,1_2_2_1,word_2_word_1,near,lorry,Clear_After,preschool,hanna,2013-09-13,,English,French,,,,0,male
VlMJS,23,11,mal_plain,fem_sws,3,lorry,book,book,lorry,book,mal_plain_fem_sws,critical,3/9/2017,9:50,right,true,2521,1,1_2_2_1,word_2_word_1,near,book,Clear_After,preschool,hanna,2013-09-13,,English,French,,,,0,male
VlMJS,24,15,mal_plain,fem_sws,1,slide,pencil,pencil,pencil,slide,mal_plain_fem_sws,critical,3/9/2017,9:50,right,true,3236,2,1_2_2_1,word_2_word_1,near,slide,Clear_After,preschool,hanna,2013-09-13,,English,French,,,,0,male
VlMJS,24,15,mal_plain,fem_sws,2,slide,pencil,pencil,pencil,slide,mal_plain_fem_sws,critical,3/9/2017,9:50,right,false,3252,2,1_2_2_1,word_2_word_1,near,slide,Clear_After,preschool,hanna,2013-09-13,,English,French,,,,0,male
VlMJS,24,15,mal_plain,fem_sws,3,slide,pencil,pencil,pencil,slide,mal_plain_fem_sws,critical,3/9/2017,9:50,left,true,2385,2,1_2_2_1,word_2_word_1,near,pencil,Clear_After,preschool,hanna,2013-09-13,,English,French,,,,0,male
VlMJS,25,16,mal_plain,fem_sws,1,paintbrush,banana,paintbrush,paintbrush,banana,mal_plain_fem_sws,critical,3/9/2017,9:50,right,false,3304,2,1_2_1_1,word_1_word_2,far,banana,Clear_After,preschool,hanna,2013-09-13,,English,French,,,,0,male
VlMJS,25,16,mal_plain,fem_sws,2,paintbrush,banana,paintbrush,paintbrush,banana,mal_plain_fem_sws,critical,3/9/2017,9:50,left,false,2916,2,1_2_1_1,word_1_word_2,far,paintbrush,Clear_After,preschool,hanna,2013-09-13,,English,French,,,,0,male
VlMJS,25,16,mal_plain,fem_sws,3,paintbrush,banana,paintbrush,paintbrush,banana,mal_plain_fem_sws,critical,3/9/2017,9:50,right,false,2369,2,1_2_1_1,word_1_word_2,far,banana,Clear_After,preschool,hanna,2013-09-13,,English,French,,,,0,male
