subject_id,trial_number,trial_id,plain,sws,instruction_number,sound1_item,sound2_item,sound3_item,left_image,right_image,sound_gender,trial_type,date_stamp,time_stamp,side_chosen,accuracy,rt,play_counter,order,pic_position,distance,chosen_pic,test_lang,testing_loc,tester,date_of_birth,ethnicity,native_lang,other_langs,parental_occ,dev_info,birth_order,num_siblings,gender
WE3DB,1,0,fem_plain,fem_sws,1,glasses,fireman,fireman,fireman,glasses,fem_plain_fem_sws,training,3/28/2017,14:18,right,true,11044,1,1_2_2_1,word_1_word_2,near,glasses,Clear_Before,lab,barbora,2013-11-29,,English,,,,Oldest,1,male
WE3DB,1,0,fem_plain,fem_sws,2,glasses,fireman,fireman,fireman,glasses,fem_plain_fem_sws,training,3/28/2017,14:18,left,true,5829,2,1_2_2_1,word_1_word_2,near,fireman,Clear_Before,lab,barbora,2013-11-29,,English,,,,Oldest,1,male
WE3DB,1,0,fem_plain,fem_sws,3,glasses,fireman,fireman,fireman,glasses,fem_plain_fem_sws,training,3/28/2017,14:18,left,true,27857,1,1_2_2_1,word_1_word_2,near,fireman,Clear_Before,lab,barbora,2013-11-29,,English,,,,Oldest,1,male
WE3DB,2,8,fem_plain,fem_sws,1,fire_engine,wellyboots,wellyboots,fire_engine,wellyboots,fem_plain_fem_sws,critical,3/28/2017,14:18,left,true,5248,3,1_2_2_1,word_2_word_1,near,fire_engine,Clear_Before,lab,barbora,2013-11-29,,English,,,,Oldest,1,male
WE3DB,2,8,fem_plain,fem_sws,2,fire_engine,wellyboots,wellyboots,fire_engine,wellyboots,fem_plain_fem_sws,critical,3/28/2017,14:18,right,true,3870,2,1_2_2_1,word_2_word_1,near,wellyboots,Clear_Before,lab,barbora,2013-11-29,,English,,,,Oldest,1,male
WE3DB,2,8,fem_plain,fem_sws,3,fire_engine,wellyboots,wellyboots,fire_engine,wellyboots,fem_plain_fem_sws,critical,3/28/2017,14:18,right,true,5011,2,1_2_2_1,word_2_word_1,near,wellyboots,Clear_Before,lab,barbora,2013-11-29,,English,,,,Oldest,1,male
WE3DB,3,19,fem_plain,fem_sws,1,santa,building_blocks,building_blocks,building_blocks,santa,fem_plain_fem_sws,critical,3/28/2017,14:18,right,true,4826,2,2_1_1_1,word_2_word_1,near,santa,Clear_Before,lab,barbora,2013-11-29,,English,,,,Oldest,1,male
WE3DB,3,19,fem_plain,fem_sws,2,santa,building_blocks,building_blocks,building_blocks,santa,fem_plain_fem_sws,critical,3/28/2017,14:18,left,true,3618,4,2_1_1_1,word_2_word_1,near,building_blocks,Clear_Before,lab,barbora,2013-11-29,,English,,,,Oldest,1,male
WE3DB,3,19,fem_plain,fem_sws,3,santa,building_blocks,building_blocks,building_blocks,santa,fem_plain_fem_sws,critical,3/28/2017,14:18,left,true,10669,1,2_1_1_1,word_2_word_1,near,building_blocks,Clear_Before,lab,barbora,2013-11-29,,English,,,,Oldest,1,male
WE3DB,4,5,fem_plain,fem_sws,1,orange,car,orange,orange,car,fem_plain_fem_sws,critical,3/28/2017,14:18,left,true,4020,2,1_2_1_1,word_1_word_2,far,orange,Clear_Before,lab,barbora,2013-11-29,,English,,,,Oldest,1,male
WE3DB,4,5,fem_plain,fem_sws,2,orange,car,orange,orange,car,fem_plain_fem_sws,critical,3/28/2017,14:18,right,true,3238,1,1_2_1_1,word_1_word_2,far,car,Clear_Before,lab,barbora,2013-11-29,,English,,,,Oldest,1,male
WE3DB,4,5,fem_plain,fem_sws,3,orange,car,orange,orange,car,fem_plain_fem_sws,critical,3/28/2017,14:18,left,true,4945,2,1_2_1_1,word_1_word_2,far,orange,Clear_Before,lab,barbora,2013-11-29,,English,,,,Oldest,1,male
WE3DB,5,11,fem_plain,fem_sws,1,book,lorry,book,lorry,book,fem_plain_fem_sws,critical,3/28/2017,14:18,right,true,4829,4,1_2_1_1,word_2_word_1,far,book,Clear_Before,lab,barbora,2013-11-29,,English,,,,Oldest,1,male
WE3DB,5,11,fem_plain,fem_sws,2,book,lorry,book,lorry,book,fem_plain_fem_sws,critical,3/28/2017,14:18,left,true,3388,2,1_2_1_1,word_2_word_1,far,lorry,Clear_Before,lab,barbora,2013-11-29,,English,,,,Oldest,1,male
WE3DB,5,11,fem_plain,fem_sws,3,book,lorry,book,lorry,book,fem_plain_fem_sws,critical,3/28/2017,14:18,right,true,37153,1,1_2_1_1,word_2_word_1,far,book,Clear_Before,lab,barbora,2013-11-29,,English,,,,Oldest,1,male
WE3DB,6,24,fem_plain,fem_sws,1,sink,fish,sink,fish,sink,fem_plain_fem_sws,critical,3/28/2017,14:18,right,true,5249,2,1_2_1_1,word_2_word_1,far,sink,Clear_Before,lab,barbora,2013-11-29,,English,,,,Oldest,1,male
WE3DB,6,24,fem_plain,fem_sws,2,sink,fish,sink,fish,sink,fem_plain_fem_sws,critical,3/28/2017,14:18,left,true,9977,2,1_2_1_1,word_2_word_1,far,fish,Clear_Before,lab,barbora,2013-11-29,,English,,,,Oldest,1,male
WE3DB,6,24,fem_plain,fem_sws,3,sink,fish,sink,fish,sink,fem_plain_fem_sws,critical,3/28/2017,14:18,right,true,3958,2,1_2_1_1,word_2_word_1,far,sink,Clear_Before,lab,barbora,2013-11-29,,English,,,,Oldest,1,male
WE3DB,7,18,fem_plain,fem_sws,1,raspberry,ball,ball,ball,raspberry,fem_plain_fem_sws,critical,3/28/2017,14:18,right,true,3485,2,1_2_2_1,word_1_word_2,near,raspberry,Clear_Before,lab,barbora,2013-11-29,,English,,,,Oldest,1,male
WE3DB,7,18,fem_plain,fem_sws,2,raspberry,ball,ball,ball,raspberry,fem_plain_fem_sws,critical,3/28/2017,14:18,left,true,2833,2,1_2_2_1,word_1_word_2,near,ball,Clear_Before,lab,barbora,2013-11-29,,English,,,,Oldest,1,male
WE3DB,7,18,fem_plain,fem_sws,3,raspberry,ball,ball,ball,raspberry,fem_plain_fem_sws,critical,3/28/2017,14:18,left,true,3181,4,1_2_2_1,word_1_word_2,near,ball,Clear_Before,lab,barbora,2013-11-29,,English,,,,Oldest,1,male
WE3DB,8,17,fem_plain,fem_sws,1,cake,ambulance,cake,ambulance,cake,fem_plain_fem_sws,critical,3/28/2017,14:18,right,true,3609,1,1_2_1_1,word_2_word_1,far,cake,Clear_Before,lab,barbora,2013-11-29,,English,,,,Oldest,1,male
WE3DB,8,17,fem_plain,fem_sws,2,cake,ambulance,cake,ambulance,cake,fem_plain_fem_sws,critical,3/28/2017,14:18,left,true,9588,2,1_2_1_1,word_2_word_1,far,ambulance,Clear_Before,lab,barbora,2013-11-29,,English,,,,Oldest,1,male
WE3DB,8,17,fem_plain,fem_sws,3,cake,ambulance,cake,ambulance,cake,fem_plain_fem_sws,critical,3/28/2017,14:18,right,true,11260,2,1_2_1_1,word_2_word_1,far,cake,Clear_Before,lab,barbora,2013-11-29,,English,,,,Oldest,1,male
WE3DB,9,9,fem_plain,fem_sws,1,pizza,window,window,window,pizza,fem_plain_fem_sws,critical,3/28/2017,14:18,right,true,23759,2,1_2_2_1,word_2_word_1,near,pizza,Clear_Before,lab,barbora,2013-11-29,,English,,,,Oldest,1,male
WE3DB,9,9,fem_plain,fem_sws,2,pizza,window,window,window,pizza,fem_plain_fem_sws,critical,3/28/2017,14:18,left,true,4579,1,1_2_2_1,word_2_word_1,near,window,Clear_Before,lab,barbora,2013-11-29,,English,,,,Oldest,1,male
WE3DB,9,9,fem_plain,fem_sws,3,pizza,window,window,window,pizza,fem_plain_fem_sws,critical,3/28/2017,14:18,left,true,4691,2,1_2_2_1,word_2_word_1,near,window,Clear_Before,lab,barbora,2013-11-29,,English,,,,Oldest,1,male
WE3DB,10,14,fem_plain,fem_sws,1,cheese,shoes,cheese,cheese,shoes,fem_plain_fem_sws,critical,3/28/2017,14:18,left,true,8597,1,2_1_2_1,word_1_word_2,far,cheese,Clear_Before,lab,barbora,2013-11-29,,English,,,,Oldest,1,male
WE3DB,10,14,fem_plain,fem_sws,2,cheese,shoes,cheese,cheese,shoes,fem_plain_fem_sws,critical,3/28/2017,14:18,right,true,4028,1,2_1_2_1,word_1_word_2,far,shoes,Clear_Before,lab,barbora,2013-11-29,,English,,,,Oldest,1,male
WE3DB,10,14,fem_plain,fem_sws,3,cheese,shoes,cheese,cheese,shoes,fem_plain_fem_sws,critical,3/28/2017,14:18,left,true,7221,2,2_1_2_1,word_1_word_2,far,cheese,Clear_Before,lab,barbora,2013-11-29,,English,,,,Oldest,1,male
WE3DB,11,21,fem_plain,fem_sws,1,sheep,frog,frog,sheep,frog,fem_plain_fem_sws,critical,3/28/2017,14:18,left,true,14336,3,2_1_1_1,word_2_word_1,near,sheep,Clear_Before,lab,barbora,2013-11-29,,English,,,,Oldest,1,male
WE3DB,11,21,fem_plain,fem_sws,2,sheep,frog,frog,sheep,frog,fem_plain_fem_sws,critical,3/28/2017,14:18,right,true,3343,2,2_1_1_1,word_2_word_1,near,frog,Clear_Before,lab,barbora,2013-11-29,,English,,,,Oldest,1,male
WE3DB,11,21,fem_plain,fem_sws,3,sheep,frog,frog,sheep,frog,fem_plain_fem_sws,critical,3/28/2017,14:18,right,true,4888,2,2_1_1_1,word_2_word_1,near,frog,Clear_Before,lab,barbora,2013-11-29,,English,,,,Oldest,1,male
WE3DB,12,16,fem_plain,fem_sws,1,paintbrush,banana,banana,banana,paintbrush,fem_plain_fem_sws,critical,3/28/2017,14:18,right,true,5677,1,1_2_2_1,word_2_word_1,near,paintbrush,Clear_Before,lab,barbora,2013-11-29,,English,,,,Oldest,1,male
WE3DB,12,16,fem_plain,fem_sws,2,paintbrush,banana,banana,banana,paintbrush,fem_plain_fem_sws,critical,3/28/2017,14:18,left,true,3493,2,1_2_2_1,word_2_word_1,near,banana,Clear_Before,lab,barbora,2013-11-29,,English,,,,Oldest,1,male
WE3DB,12,16,fem_plain,fem_sws,3,paintbrush,banana,banana,banana,paintbrush,fem_plain_fem_sws,critical,3/28/2017,14:18,left,true,8731,2,1_2_2_1,word_2_word_1,near,banana,Clear_Before,lab,barbora,2013-11-29,,English,,,,Oldest,1,male
WE3DB,13,3,fem_plain,fem_sws,1,trousers,nose,nose,trousers,nose,fem_plain_fem_sws,critical,3/28/2017,14:18,right,false,15398,1,2_1_1_1,word_1_word_2,near,nose,Clear_Before,lab,barbora,2013-11-29,,English,,,,Oldest,1,male
WE3DB,13,3,fem_plain,fem_sws,2,trousers,nose,nose,trousers,nose,fem_plain_fem_sws,critical,3/28/2017,14:18,right,true,17657,1,2_1_1_1,word_1_word_2,near,nose,Clear_Before,lab,barbora,2013-11-29,,English,,,,Oldest,1,male
WE3DB,13,3,fem_plain,fem_sws,3,trousers,nose,nose,trousers,nose,fem_plain_fem_sws,critical,3/28/2017,14:18,right,true,12232,2,2_1_1_1,word_1_word_2,near,nose,Clear_Before,lab,barbora,2013-11-29,,English,,,,Oldest,1,male
WE3DB,14,6,fem_plain,fem_sws,1,bird,peas,bird,bird,peas,fem_plain_fem_sws,critical,3/28/2017,14:18,left,true,5582,1,2_1_2_1,word_1_word_2,far,bird,Clear_Before,lab,barbora,2013-11-29,,English,,,,Oldest,1,male
WE3DB,14,6,fem_plain,fem_sws,2,bird,peas,bird,bird,peas,fem_plain_fem_sws,critical,3/28/2017,14:18,right,true,7797,1,2_1_2_1,word_1_word_2,far,peas,Clear_Before,lab,barbora,2013-11-29,,English,,,,Oldest,1,male
WE3DB,14,6,fem_plain,fem_sws,3,bird,peas,bird,bird,peas,fem_plain_fem_sws,critical,3/28/2017,14:18,left,true,5799,1,2_1_2_1,word_1_word_2,far,bird,Clear_Before,lab,barbora,2013-11-29,,English,,,,Oldest,1,male
WE3DB,15,1,fem_plain,fem_sws,1,spoon,baby,baby,spoon,baby,fem_plain_fem_sws,critical,3/28/2017,14:18,right,false,4910,1,2_1_1_1,word_1_word_2,near,baby,Clear_Before,lab,barbora,2013-11-29,,English,,,,Oldest,1,male
WE3DB,15,1,fem_plain,fem_sws,2,spoon,baby,baby,spoon,baby,fem_plain_fem_sws,critical,3/28/2017,14:18,right,true,2833,4,2_1_1_1,word_1_word_2,near,baby,Clear_Before,lab,barbora,2013-11-29,,English,,,,Oldest,1,male
WE3DB,15,1,fem_plain,fem_sws,3,spoon,baby,baby,spoon,baby,fem_plain_fem_sws,critical,3/28/2017,14:18,right,true,3357,1,2_1_1_1,word_1_word_2,near,baby,Clear_Before,lab,barbora,2013-11-29,,English,,,,Oldest,1,male
WE3DB,16,23,fem_plain,fem_sws,1,bath,teddy_bear,bath,teddy_bear,bath,fem_plain_fem_sws,critical,3/28/2017,14:18,right,true,5161,1,2_1_2_1,word_2_word_1,far,bath,Clear_Before,lab,barbora,2013-11-29,,English,,,,Oldest,1,male
WE3DB,16,23,fem_plain,fem_sws,2,bath,teddy_bear,bath,teddy_bear,bath,fem_plain_fem_sws,critical,3/28/2017,14:18,left,true,3514,1,2_1_2_1,word_2_word_1,far,teddy_bear,Clear_Before,lab,barbora,2013-11-29,,English,,,,Oldest,1,male
WE3DB,16,23,fem_plain,fem_sws,3,bath,teddy_bear,bath,teddy_bear,bath,fem_plain_fem_sws,critical,3/28/2017,14:18,left,false,2980,3,2_1_2_1,word_2_word_1,far,teddy_bear,Clear_Before,lab,barbora,2013-11-29,,English,,,,Oldest,1,male
WE3DB,17,22,fem_plain,fem_sws,1,dog,bike,dog,bike,dog,fem_plain_fem_sws,critical,3/28/2017,14:18,right,true,6573,2,2_1_2_1,word_1_word_2,far,dog,Clear_Before,lab,barbora,2013-11-29,,English,,,,Oldest,1,male
WE3DB,17,22,fem_plain,fem_sws,2,dog,bike,dog,bike,dog,fem_plain_fem_sws,critical,3/28/2017,14:18,left,true,2837,2,2_1_2_1,word_1_word_2,far,bike,Clear_Before,lab,barbora,2013-11-29,,English,,,,Oldest,1,male
WE3DB,17,22,fem_plain,fem_sws,3,dog,bike,dog,bike,dog,fem_plain_fem_sws,critical,3/28/2017,14:18,right,true,4577,1,2_1_2_1,word_1_word_2,far,dog,Clear_Before,lab,barbora,2013-11-29,,English,,,,Oldest,1,male
WE3DB,18,7,fem_plain,fem_sws,1,lolly,horse,horse,horse,lolly,fem_plain_fem_sws,critical,3/28/2017,14:18,left,false,5947,1,2_1_1_1,word_2_word_1,near,horse,Clear_Before,lab,barbora,2013-11-29,,English,,,,Oldest,1,male
WE3DB,18,7,fem_plain,fem_sws,2,lolly,horse,horse,horse,lolly,fem_plain_fem_sws,critical,3/28/2017,14:18,right,false,3416,2,2_1_1_1,word_2_word_1,near,lolly,Clear_Before,lab,barbora,2013-11-29,,English,,,,Oldest,1,male
WE3DB,18,7,fem_plain,fem_sws,3,lolly,horse,horse,horse,lolly,fem_plain_fem_sws,critical,3/28/2017,14:18,left,true,2538,2,2_1_1_1,word_2_word_1,near,horse,Clear_Before,lab,barbora,2013-11-29,,English,,,,Oldest,1,male
WE3DB,19,20,fem_plain,fem_sws,1,rabbit,jumper,rabbit,jumper,rabbit,fem_plain_fem_sws,critical,3/28/2017,14:18,right,true,5050,1,2_1_2_1,word_1_word_2,far,rabbit,Clear_Before,lab,barbora,2013-11-29,,English,,,,Oldest,1,male
WE3DB,19,20,fem_plain,fem_sws,2,rabbit,jumper,rabbit,jumper,rabbit,fem_plain_fem_sws,critical,3/28/2017,14:18,right,false,3286,2,2_1_2_1,word_1_word_2,far,rabbit,Clear_Before,lab,barbora,2013-11-29,,English,,,,Oldest,1,male
WE3DB,19,20,fem_plain,fem_sws,3,rabbit,jumper,rabbit,jumper,rabbit,fem_plain_fem_sws,critical,3/28/2017,14:18,left,false,3480,1,2_1_2_1,word_1_word_2,far,jumper,Clear_Before,lab,barbora,2013-11-29,,English,,,,Oldest,1,male
WE3DB,20,10,fem_plain,fem_sws,1,tshirt,pig,tshirt,pig,tshirt,fem_plain_fem_sws,critical,3/28/2017,14:18,right,true,5880,1,2_1_2_1,word_1_word_2,far,tshirt,Clear_Before,lab,barbora,2013-11-29,,English,,,,Oldest,1,male
WE3DB,20,10,fem_plain,fem_sws,2,tshirt,pig,tshirt,pig,tshirt,fem_plain_fem_sws,critical,3/28/2017,14:18,right,false,4232,1,2_1_2_1,word_1_word_2,far,tshirt,Clear_Before,lab,barbora,2013-11-29,,English,,,,Oldest,1,male
WE3DB,20,10,fem_plain,fem_sws,3,tshirt,pig,tshirt,pig,tshirt,fem_plain_fem_sws,critical,3/28/2017,14:18,left,false,2886,2,2_1_2_1,word_1_word_2,far,pig,Clear_Before,lab,barbora,2013-11-29,,English,,,,Oldest,1,male
WE3DB,21,12,fem_plain,fem_sws,1,foot,yoghurt,yoghurt,yoghurt,foot,fem_plain_fem_sws,critical,3/28/2017,14:18,left,false,21497,1,1_2_2_1,word_2_word_1,near,yoghurt,Clear_Before,lab,barbora,2013-11-29,,English,,,,Oldest,1,male
WE3DB,21,12,fem_plain,fem_sws,2,foot,yoghurt,yoghurt,yoghurt,foot,fem_plain_fem_sws,critical,3/28/2017,14:18,right,false,4386,1,1_2_2_1,word_2_word_1,near,foot,Clear_Before,lab,barbora,2013-11-29,,English,,,,Oldest,1,male
WE3DB,21,12,fem_plain,fem_sws,3,foot,yoghurt,yoghurt,yoghurt,foot,fem_plain_fem_sws,critical,3/28/2017,14:18,left,true,2657,1,1_2_2_1,word_2_word_1,near,yoghurt,Clear_Before,lab,barbora,2013-11-29,,English,,,,Oldest,1,male
WE3DB,22,2,fem_plain,fem_sws,1,chicken,bed,chicken,chicken,bed,fem_plain_fem_sws,critical,3/28/2017,14:18,left,true,3461,1,1_2_1_1,word_2_word_1,far,chicken,Clear_Before,lab,barbora,2013-11-29,,English,,,,Oldest,1,male
WE3DB,22,2,fem_plain,fem_sws,2,chicken,bed,chicken,chicken,bed,fem_plain_fem_sws,critical,3/28/2017,14:18,left,false,3527,2,1_2_1_1,word_2_word_1,far,chicken,Clear_Before,lab,barbora,2013-11-29,,English,,,,Oldest,1,male
WE3DB,22,2,fem_plain,fem_sws,3,chicken,bed,chicken,chicken,bed,fem_plain_fem_sws,critical,3/28/2017,14:18,right,false,5729,2,1_2_1_1,word_2_word_1,far,bed,Clear_Before,lab,barbora,2013-11-29,,English,,,,Oldest,1,male
WE3DB,23,4,fem_plain,fem_sws,1,coat,strawberry,coat,strawberry,coat,fem_plain_fem_sws,critical,3/28/2017,14:18,right,true,2812,2,1_2_1_1,word_2_word_1,far,coat,Clear_Before,lab,barbora,2013-11-29,,English,,,,Oldest,1,male
WE3DB,23,4,fem_plain,fem_sws,2,coat,strawberry,coat,strawberry,coat,fem_plain_fem_sws,critical,3/28/2017,14:18,right,false,4269,1,1_2_1_1,word_2_word_1,far,coat,Clear_Before,lab,barbora,2013-11-29,,English,,,,Oldest,1,male
WE3DB,23,4,fem_plain,fem_sws,3,coat,strawberry,coat,strawberry,coat,fem_plain_fem_sws,critical,3/28/2017,14:18,left,false,10345,2,1_2_1_1,word_2_word_1,far,strawberry,Clear_Before,lab,barbora,2013-11-29,,English,,,,Oldest,1,male
WE3DB,24,15,fem_plain,fem_sws,1,slide,pencil,pencil,slide,pencil,fem_plain_fem_sws,critical,3/28/2017,14:18,right,false,7729,1,2_1_1_1,word_1_word_2,near,pencil,Clear_Before,lab,barbora,2013-11-29,,English,,,,Oldest,1,male
WE3DB,24,15,fem_plain,fem_sws,2,slide,pencil,pencil,slide,pencil,fem_plain_fem_sws,critical,3/28/2017,14:18,left,false,5064,3,2_1_1_1,word_1_word_2,near,slide,Clear_Before,lab,barbora,2013-11-29,,English,,,,Oldest,1,male
WE3DB,24,15,fem_plain,fem_sws,3,slide,pencil,pencil,slide,pencil,fem_plain_fem_sws,critical,3/28/2017,14:18,right,true,9129,1,2_1_1_1,word_1_word_2,near,pencil,Clear_Before,lab,barbora,2013-11-29,,English,,,,Oldest,1,male
WE3DB,25,13,fem_plain,fem_sws,1,airplane,toothbrush,airplane,toothbrush,airplane,fem_plain_fem_sws,critical,3/28/2017,14:18,right,true,3680,3,1_2_1_1,word_1_word_2,far,airplane,Clear_Before,lab,barbora,2013-11-29,,English,,,,Oldest,1,male
WE3DB,25,13,fem_plain,fem_sws,2,airplane,toothbrush,airplane,toothbrush,airplane,fem_plain_fem_sws,critical,3/28/2017,14:18,right,false,7000,2,1_2_1_1,word_1_word_2,far,airplane,Clear_Before,lab,barbora,2013-11-29,,English,,,,Oldest,1,male
WE3DB,25,13,fem_plain,fem_sws,3,airplane,toothbrush,airplane,toothbrush,airplane,fem_plain_fem_sws,critical,3/28/2017,14:18,left,false,2906,1,1_2_1_1,word_1_word_2,far,toothbrush,Clear_Before,lab,barbora,2013-11-29,,English,,,,Oldest,1,male
