subject_id,trial_number,trial_id,plain,sws,instruction_number,sound1_item,sound2_item,sound3_item,left_image,right_image,sound_gender,trial_type,date_stamp,time_stamp,side_chosen,accuracy,rt,play_counter,order,pic_position,distance,chosen_pic,test_lang,testing_loc,tester,date_of_birth,ethnicity,native_lang,other_langs,parental_occ,dev_info,birth_order,num_siblings,gender
WOWxC,1,0,fem_plain,fem_sws,1,fireman,glasses,glasses,glasses,fireman,fem_plain_fem_sws,training,3/6/2017,13:58,right,true,2582,4,1_2_2_1,word_2_word_1,near,fireman,Clear_Before,preschool,hanna,2012-12-13,,Polish,English,,,2,1,female
WOWxC,1,0,fem_plain,fem_sws,2,fireman,glasses,glasses,glasses,fireman,fem_plain_fem_sws,training,3/6/2017,13:58,left,true,2052,2,1_2_2_1,word_2_word_1,near,glasses,Clear_Before,preschool,hanna,2012-12-13,,Polish,English,,,2,1,female
WOWxC,1,0,fem_plain,fem_sws,3,fireman,glasses,glasses,glasses,fireman,fem_plain_fem_sws,training,3/6/2017,13:58,left,true,7159,4,1_2_2_1,word_2_word_1,near,glasses,Clear_Before,preschool,hanna,2012-12-13,,Polish,English,,,2,1,female
WOWxC,2,1,fem_plain,fem_sws,1,baby,spoon,baby,spoon,baby,fem_plain_fem_sws,critical,3/6/2017,13:58,right,true,2438,4,2_1_2_1,word_1_word_2,far,baby,Clear_Before,preschool,hanna,2012-12-13,,Polish,English,,,2,1,female
WOWxC,2,1,fem_plain,fem_sws,2,baby,spoon,baby,spoon,baby,fem_plain_fem_sws,critical,3/6/2017,13:58,left,true,1817,2,2_1_2_1,word_1_word_2,far,spoon,Clear_Before,preschool,hanna,2012-12-13,,Polish,English,,,2,1,female
WOWxC,2,1,fem_plain,fem_sws,3,baby,spoon,baby,spoon,baby,fem_plain_fem_sws,critical,3/6/2017,13:58,right,true,3498,6,2_1_2_1,word_1_word_2,far,baby,Clear_Before,preschool,hanna,2012-12-13,,Polish,English,,,2,1,female
WOWxC,3,4,fem_plain,fem_sws,1,strawberry,coat,strawberry,coat,strawberry,fem_plain_fem_sws,critical,3/6/2017,13:58,right,true,2175,2,1_2_1_1,word_1_word_2,far,strawberry,Clear_Before,preschool,hanna,2012-12-13,,Polish,English,,,2,1,female
WOWxC,3,4,fem_plain,fem_sws,2,strawberry,coat,strawberry,coat,strawberry,fem_plain_fem_sws,critical,3/6/2017,13:58,left,true,2144,1,1_2_1_1,word_1_word_2,far,coat,Clear_Before,preschool,hanna,2012-12-13,,Polish,English,,,2,1,female
WOWxC,3,4,fem_plain,fem_sws,3,strawberry,coat,strawberry,coat,strawberry,fem_plain_fem_sws,critical,3/6/2017,13:58,right,true,3421,2,1_2_1_1,word_1_word_2,far,strawberry,Clear_Before,preschool,hanna,2012-12-13,,Polish,English,,,2,1,female
WOWxC,4,23,fem_plain,fem_sws,1,bath,teddy_bear,bath,bath,teddy_bear,fem_plain_fem_sws,critical,3/6/2017,13:58,left,true,2733,2,1_2_1_1,word_1_word_2,far,bath,Clear_Before,preschool,hanna,2012-12-13,,Polish,English,,,2,1,female
WOWxC,4,23,fem_plain,fem_sws,2,bath,teddy_bear,bath,bath,teddy_bear,fem_plain_fem_sws,critical,3/6/2017,13:58,right,true,2466,2,1_2_1_1,word_1_word_2,far,teddy_bear,Clear_Before,preschool,hanna,2012-12-13,,Polish,English,,,2,1,female
WOWxC,4,23,fem_plain,fem_sws,3,bath,teddy_bear,bath,bath,teddy_bear,fem_plain_fem_sws,critical,3/6/2017,13:58,right,false,5748,4,1_2_1_1,word_1_word_2,far,teddy_bear,Clear_Before,preschool,hanna,2012-12-13,,Polish,English,,,2,1,female
WOWxC,5,21,fem_plain,fem_sws,1,frog,sheep,sheep,sheep,frog,fem_plain_fem_sws,critical,3/6/2017,13:58,right,true,3044,2,2_1_1_1,word_2_word_1,near,frog,Clear_Before,preschool,hanna,2012-12-13,,Polish,English,,,2,1,female
WOWxC,5,21,fem_plain,fem_sws,2,frog,sheep,sheep,sheep,frog,fem_plain_fem_sws,critical,3/6/2017,13:58,left,true,1976,2,2_1_1_1,word_2_word_1,near,sheep,Clear_Before,preschool,hanna,2012-12-13,,Polish,English,,,2,1,female
WOWxC,5,21,fem_plain,fem_sws,3,frog,sheep,sheep,sheep,frog,fem_plain_fem_sws,critical,3/6/2017,13:58,right,false,3939,3,2_1_1_1,word_2_word_1,near,frog,Clear_Before,preschool,hanna,2012-12-13,,Polish,English,,,2,1,female
WOWxC,6,3,fem_plain,fem_sws,1,trousers,nose,nose,trousers,nose,fem_plain_fem_sws,critical,3/6/2017,13:58,left,true,2457,2,1_2_2_1,word_1_word_2,near,trousers,Clear_Before,preschool,hanna,2012-12-13,,Polish,English,,,2,1,female
WOWxC,6,3,fem_plain,fem_sws,2,trousers,nose,nose,trousers,nose,fem_plain_fem_sws,critical,3/6/2017,13:58,right,true,1958,1,1_2_2_1,word_1_word_2,near,nose,Clear_Before,preschool,hanna,2012-12-13,,Polish,English,,,2,1,female
WOWxC,6,3,fem_plain,fem_sws,3,trousers,nose,nose,trousers,nose,fem_plain_fem_sws,critical,3/6/2017,13:58,right,true,8191,4,1_2_2_1,word_1_word_2,near,nose,Clear_Before,preschool,hanna,2012-12-13,,Polish,English,,,2,1,female
WOWxC,7,20,fem_plain,fem_sws,1,jumper,rabbit,jumper,rabbit,jumper,fem_plain_fem_sws,critical,3/6/2017,13:58,right,true,2025,2,1_2_1_1,word_2_word_1,far,jumper,Clear_Before,preschool,hanna,2012-12-13,,Polish,English,,,2,1,female
WOWxC,7,20,fem_plain,fem_sws,2,jumper,rabbit,jumper,rabbit,jumper,fem_plain_fem_sws,critical,3/6/2017,13:58,left,true,1967,2,1_2_1_1,word_2_word_1,far,rabbit,Clear_Before,preschool,hanna,2012-12-13,,Polish,English,,,2,1,female
WOWxC,7,20,fem_plain,fem_sws,3,jumper,rabbit,jumper,rabbit,jumper,fem_plain_fem_sws,critical,3/6/2017,13:58,left,false,6338,1,1_2_1_1,word_2_word_1,far,rabbit,Clear_Before,preschool,hanna,2012-12-13,,Polish,English,,,2,1,female
WOWxC,8,10,fem_plain,fem_sws,1,tshirt,pig,pig,tshirt,pig,fem_plain_fem_sws,critical,3/6/2017,13:58,left,true,2975,2,2_1_1_1,word_2_word_1,near,tshirt,Clear_Before,preschool,hanna,2012-12-13,,Polish,English,,,2,1,female
WOWxC,8,10,fem_plain,fem_sws,2,tshirt,pig,pig,tshirt,pig,fem_plain_fem_sws,critical,3/6/2017,13:58,right,true,1732,1,2_1_1_1,word_2_word_1,near,pig,Clear_Before,preschool,hanna,2012-12-13,,Polish,English,,,2,1,female
WOWxC,8,10,fem_plain,fem_sws,3,tshirt,pig,pig,tshirt,pig,fem_plain_fem_sws,critical,3/6/2017,13:58,right,true,3838,1,2_1_1_1,word_2_word_1,near,pig,Clear_Before,preschool,hanna,2012-12-13,,Polish,English,,,2,1,female
WOWxC,9,2,fem_plain,fem_sws,1,bed,chicken,bed,bed,chicken,fem_plain_fem_sws,critical,3/6/2017,13:58,right,false,3431,2,1_2_1_1,word_1_word_2,far,chicken,Clear_Before,preschool,hanna,2012-12-13,,Polish,English,,,2,1,female
WOWxC,9,2,fem_plain,fem_sws,2,bed,chicken,bed,bed,chicken,fem_plain_fem_sws,critical,3/6/2017,13:58,right,true,3066,1,1_2_1_1,word_1_word_2,far,chicken,Clear_Before,preschool,hanna,2012-12-13,,Polish,English,,,2,1,female
WOWxC,9,2,fem_plain,fem_sws,3,bed,chicken,bed,bed,chicken,fem_plain_fem_sws,critical,3/6/2017,13:58,left,true,3706,2,1_2_1_1,word_1_word_2,far,bed,Clear_Before,preschool,hanna,2012-12-13,,Polish,English,,,2,1,female
WOWxC,10,24,fem_plain,fem_sws,1,fish,sink,sink,sink,fish,fem_plain_fem_sws,critical,3/6/2017,13:58,right,true,2342,2,1_2_2_1,word_1_word_2,near,fish,Clear_Before,preschool,hanna,2012-12-13,,Polish,English,,,2,1,female
WOWxC,10,24,fem_plain,fem_sws,2,fish,sink,sink,sink,fish,fem_plain_fem_sws,critical,3/6/2017,13:58,left,true,1564,2,1_2_2_1,word_1_word_2,near,sink,Clear_Before,preschool,hanna,2012-12-13,,Polish,English,,,2,1,female
WOWxC,10,24,fem_plain,fem_sws,3,fish,sink,sink,sink,fish,fem_plain_fem_sws,critical,3/6/2017,13:58,right,false,3394,3,1_2_2_1,word_1_word_2,near,fish,Clear_Before,preschool,hanna,2012-12-13,,Polish,English,,,2,1,female
WOWxC,11,9,fem_plain,fem_sws,1,window,pizza,window,pizza,window,fem_plain_fem_sws,critical,3/6/2017,13:58,right,true,2318,2,2_1_2_1,word_1_word_2,far,window,Clear_Before,preschool,hanna,2012-12-13,,Polish,English,,,2,1,female
WOWxC,11,9,fem_plain,fem_sws,2,window,pizza,window,pizza,window,fem_plain_fem_sws,critical,3/6/2017,13:58,left,true,1913,2,2_1_2_1,word_1_word_2,far,pizza,Clear_Before,preschool,hanna,2012-12-13,,Polish,English,,,2,1,female
WOWxC,11,9,fem_plain,fem_sws,3,window,pizza,window,pizza,window,fem_plain_fem_sws,critical,3/6/2017,13:58,right,true,5397,7,2_1_2_1,word_1_word_2,far,window,Clear_Before,preschool,hanna,2012-12-13,,Polish,English,,,2,1,female
WOWxC,12,6,fem_plain,fem_sws,1,peas,bird,bird,peas,bird,fem_plain_fem_sws,critical,3/6/2017,13:58,left,true,2549,2,2_1_1_1,word_2_word_1,near,peas,Clear_Before,preschool,hanna,2012-12-13,,Polish,English,,,2,1,female
WOWxC,12,6,fem_plain,fem_sws,2,peas,bird,bird,peas,bird,fem_plain_fem_sws,critical,3/6/2017,13:58,right,true,1813,2,2_1_1_1,word_2_word_1,near,bird,Clear_Before,preschool,hanna,2012-12-13,,Polish,English,,,2,1,female
WOWxC,12,6,fem_plain,fem_sws,3,peas,bird,bird,peas,bird,fem_plain_fem_sws,critical,3/6/2017,13:58,right,true,1875,1,2_1_1_1,word_2_word_1,near,bird,Clear_Before,preschool,hanna,2012-12-13,,Polish,English,,,2,1,female
WOWxC,13,5,fem_plain,fem_sws,1,car,orange,orange,car,orange,fem_plain_fem_sws,critical,3/6/2017,13:58,left,true,2375,2,2_1_1_1,word_2_word_1,near,car,Clear_Before,preschool,hanna,2012-12-13,,Polish,English,,,2,1,female
WOWxC,13,5,fem_plain,fem_sws,2,car,orange,orange,car,orange,fem_plain_fem_sws,critical,3/6/2017,13:58,right,true,2450,1,2_1_1_1,word_2_word_1,near,orange,Clear_Before,preschool,hanna,2012-12-13,,Polish,English,,,2,1,female
WOWxC,13,5,fem_plain,fem_sws,3,car,orange,orange,car,orange,fem_plain_fem_sws,critical,3/6/2017,13:58,right,true,4230,2,2_1_1_1,word_2_word_1,near,orange,Clear_Before,preschool,hanna,2012-12-13,,Polish,English,,,2,1,female
WOWxC,14,7,fem_plain,fem_sws,1,lolly,horse,horse,lolly,horse,fem_plain_fem_sws,critical,3/6/2017,13:58,left,true,3241,2,2_1_1_1,word_1_word_2,near,lolly,Clear_Before,preschool,hanna,2012-12-13,,Polish,English,,,2,1,female
WOWxC,14,7,fem_plain,fem_sws,2,lolly,horse,horse,lolly,horse,fem_plain_fem_sws,critical,3/6/2017,13:58,right,true,1992,2,2_1_1_1,word_1_word_2,near,horse,Clear_Before,preschool,hanna,2012-12-13,,Polish,English,,,2,1,female
WOWxC,14,7,fem_plain,fem_sws,3,lolly,horse,horse,lolly,horse,fem_plain_fem_sws,critical,3/6/2017,13:58,right,true,3660,3,2_1_1_1,word_1_word_2,near,horse,Clear_Before,preschool,hanna,2012-12-13,,Polish,English,,,2,1,female
WOWxC,15,12,fem_plain,fem_sws,1,foot,yoghurt,foot,foot,yoghurt,fem_plain_fem_sws,critical,3/6/2017,13:58,right,false,2308,2,2_1_2_1,word_1_word_2,far,yoghurt,Clear_Before,preschool,hanna,2012-12-13,,Polish,English,,,2,1,female
WOWxC,15,12,fem_plain,fem_sws,2,foot,yoghurt,foot,foot,yoghurt,fem_plain_fem_sws,critical,3/6/2017,13:58,left,false,1601,1,2_1_2_1,word_1_word_2,far,foot,Clear_Before,preschool,hanna,2012-12-13,,Polish,English,,,2,1,female
WOWxC,15,12,fem_plain,fem_sws,3,foot,yoghurt,foot,foot,yoghurt,fem_plain_fem_sws,critical,3/6/2017,13:58,right,false,1864,3,2_1_2_1,word_1_word_2,far,yoghurt,Clear_Before,preschool,hanna,2012-12-13,,Polish,English,,,2,1,female
WOWxC,16,16,fem_plain,fem_sws,1,banana,paintbrush,paintbrush,paintbrush,banana,fem_plain_fem_sws,critical,3/6/2017,13:58,right,true,2088,2,1_2_2_1,word_1_word_2,near,banana,Clear_Before,preschool,hanna,2012-12-13,,Polish,English,,,2,1,female
WOWxC,16,16,fem_plain,fem_sws,2,banana,paintbrush,paintbrush,paintbrush,banana,fem_plain_fem_sws,critical,3/6/2017,13:58,left,true,2338,2,1_2_2_1,word_1_word_2,near,paintbrush,Clear_Before,preschool,hanna,2012-12-13,,Polish,English,,,2,1,female
WOWxC,16,16,fem_plain,fem_sws,3,banana,paintbrush,paintbrush,paintbrush,banana,fem_plain_fem_sws,critical,3/6/2017,13:58,left,true,7933,4,1_2_2_1,word_1_word_2,near,paintbrush,Clear_Before,preschool,hanna,2012-12-13,,Polish,English,,,2,1,female
WOWxC,17,19,fem_plain,fem_sws,1,santa,building_blocks,santa,building_blocks,santa,fem_plain_fem_sws,critical,3/6/2017,13:58,right,true,3332,2,1_2_1_1,word_2_word_1,far,santa,Clear_Before,preschool,hanna,2012-12-13,,Polish,English,,,2,1,female
WOWxC,17,19,fem_plain,fem_sws,2,santa,building_blocks,santa,building_blocks,santa,fem_plain_fem_sws,critical,3/6/2017,13:58,left,true,2139,2,1_2_1_1,word_2_word_1,far,building_blocks,Clear_Before,preschool,hanna,2012-12-13,,Polish,English,,,2,1,female
WOWxC,17,19,fem_plain,fem_sws,3,santa,building_blocks,santa,building_blocks,santa,fem_plain_fem_sws,critical,3/6/2017,13:58,right,true,2100,2,1_2_1_1,word_2_word_1,far,santa,Clear_Before,preschool,hanna,2012-12-13,,Polish,English,,,2,1,female
WOWxC,18,8,fem_plain,fem_sws,1,fire_engine,wellyboots,fire_engine,wellyboots,fire_engine,fem_plain_fem_sws,critical,3/6/2017,13:58,left,false,2944,2,2_1_2_1,word_1_word_2,far,wellyboots,Clear_Before,preschool,hanna,2012-12-13,,Polish,English,,,2,1,female
WOWxC,18,8,fem_plain,fem_sws,2,fire_engine,wellyboots,fire_engine,wellyboots,fire_engine,fem_plain_fem_sws,critical,3/6/2017,13:58,right,false,2042,2,2_1_2_1,word_1_word_2,far,fire_engine,Clear_Before,preschool,hanna,2012-12-13,,Polish,English,,,2,1,female
WOWxC,18,8,fem_plain,fem_sws,3,fire_engine,wellyboots,fire_engine,wellyboots,fire_engine,fem_plain_fem_sws,critical,3/6/2017,13:58,left,false,2645,2,2_1_2_1,word_1_word_2,far,wellyboots,Clear_Before,preschool,hanna,2012-12-13,,Polish,English,,,2,1,female
WOWxC,19,15,fem_plain,fem_sws,1,pencil,slide,slide,slide,pencil,fem_plain_fem_sws,critical,3/6/2017,13:58,right,true,7599,2,2_1_1_1,word_1_word_2,near,pencil,Clear_Before,preschool,hanna,2012-12-13,,Polish,English,,,2,1,female
WOWxC,19,15,fem_plain,fem_sws,2,pencil,slide,slide,slide,pencil,fem_plain_fem_sws,critical,3/6/2017,13:58,right,false,2909,1,2_1_1_1,word_1_word_2,near,pencil,Clear_Before,preschool,hanna,2012-12-13,,Polish,English,,,2,1,female
WOWxC,19,15,fem_plain,fem_sws,3,pencil,slide,slide,slide,pencil,fem_plain_fem_sws,critical,3/6/2017,13:58,left,true,2073,1,2_1_1_1,word_1_word_2,near,slide,Clear_Before,preschool,hanna,2012-12-13,,Polish,English,,,2,1,female
WOWxC,20,14,fem_plain,fem_sws,1,cheese,shoes,cheese,cheese,shoes,fem_plain_fem_sws,critical,3/6/2017,13:58,right,false,8136,4,2_1_2_1,word_1_word_2,far,shoes,Clear_Before,preschool,hanna,2012-12-13,,Polish,English,,,2,1,female
WOWxC,20,14,fem_plain,fem_sws,2,cheese,shoes,cheese,cheese,shoes,fem_plain_fem_sws,critical,3/6/2017,13:58,left,false,87,1,2_1_2_1,word_1_word_2,far,cheese,Clear_Before,preschool,hanna,2012-12-13,,Polish,English,,,2,1,female
WOWxC,20,14,fem_plain,fem_sws,3,cheese,shoes,cheese,cheese,shoes,fem_plain_fem_sws,critical,3/6/2017,13:58,right,false,1844,2,2_1_2_1,word_1_word_2,far,shoes,Clear_Before,preschool,hanna,2012-12-13,,Polish,English,,,2,1,female
WOWxC,21,18,fem_plain,fem_sws,1,ball,raspberry,ball,raspberry,ball,fem_plain_fem_sws,critical,3/6/2017,13:58,right,true,3974,2,2_1_2_1,word_2_word_1,far,ball,Clear_Before,preschool,hanna,2012-12-13,,Polish,English,,,2,1,female
WOWxC,21,18,fem_plain,fem_sws,2,ball,raspberry,ball,raspberry,ball,fem_plain_fem_sws,critical,3/6/2017,13:58,right,false,3047,2,2_1_2_1,word_2_word_1,far,ball,Clear_Before,preschool,hanna,2012-12-13,,Polish,English,,,2,1,female
WOWxC,21,18,fem_plain,fem_sws,3,ball,raspberry,ball,raspberry,ball,fem_plain_fem_sws,critical,3/6/2017,13:58,left,false,2518,2,2_1_2_1,word_2_word_1,far,raspberry,Clear_Before,preschool,hanna,2012-12-13,,Polish,English,,,2,1,female
WOWxC,22,17,fem_plain,fem_sws,1,ambulance,cake,cake,cake,ambulance,fem_plain_fem_sws,critical,3/6/2017,13:58,right,true,6533,2,1_2_2_1,word_1_word_2,near,ambulance,Clear_Before,preschool,hanna,2012-12-13,,Polish,English,,,2,1,female
WOWxC,22,17,fem_plain,fem_sws,2,ambulance,cake,cake,cake,ambulance,fem_plain_fem_sws,critical,3/6/2017,13:58,right,false,2758,4,1_2_2_1,word_1_word_2,near,ambulance,Clear_Before,preschool,hanna,2012-12-13,,Polish,English,,,2,1,female
WOWxC,22,17,fem_plain,fem_sws,3,ambulance,cake,cake,cake,ambulance,fem_plain_fem_sws,critical,3/6/2017,13:58,left,true,2275,1,1_2_2_1,word_1_word_2,near,cake,Clear_Before,preschool,hanna,2012-12-13,,Polish,English,,,2,1,female
WOWxC,23,22,fem_plain,fem_sws,1,dog,bike,dog,dog,bike,fem_plain_fem_sws,critical,3/6/2017,13:58,right,false,4665,2,1_2_1_1,word_2_word_1,far,bike,Clear_Before,preschool,hanna,2012-12-13,,Polish,English,,,2,1,female
WOWxC,23,22,fem_plain,fem_sws,2,dog,bike,dog,dog,bike,fem_plain_fem_sws,critical,3/6/2017,13:58,left,false,2482,1,1_2_1_1,word_2_word_1,far,dog,Clear_Before,preschool,hanna,2012-12-13,,Polish,English,,,2,1,female
WOWxC,23,22,fem_plain,fem_sws,3,dog,bike,dog,dog,bike,fem_plain_fem_sws,critical,3/6/2017,13:58,right,false,2571,2,1_2_1_1,word_2_word_1,far,bike,Clear_Before,preschool,hanna,2012-12-13,,Polish,English,,,2,1,female
WOWxC,24,13,fem_plain,fem_sws,1,toothbrush,airplane,airplane,airplane,toothbrush,fem_plain_fem_sws,critical,3/6/2017,13:58,right,true,3933,4,1_2_2_1,word_2_word_1,near,toothbrush,Clear_Before,preschool,hanna,2012-12-13,,Polish,English,,,2,1,female
WOWxC,24,13,fem_plain,fem_sws,2,toothbrush,airplane,airplane,airplane,toothbrush,fem_plain_fem_sws,critical,3/6/2017,13:58,right,false,2043,4,1_2_2_1,word_2_word_1,near,toothbrush,Clear_Before,preschool,hanna,2012-12-13,,Polish,English,,,2,1,female
WOWxC,24,13,fem_plain,fem_sws,3,toothbrush,airplane,airplane,airplane,toothbrush,fem_plain_fem_sws,critical,3/6/2017,13:58,left,true,1752,1,1_2_2_1,word_2_word_1,near,airplane,Clear_Before,preschool,hanna,2012-12-13,,Polish,English,,,2,1,female
WOWxC,25,11,fem_plain,fem_sws,1,book,lorry,book,lorry,book,fem_plain_fem_sws,critical,3/6/2017,13:58,right,true,10996,2,1_2_1_1,word_2_word_1,far,book,Clear_Before,preschool,hanna,2012-12-13,,Polish,English,,,2,1,female
WOWxC,25,11,fem_plain,fem_sws,2,book,lorry,book,lorry,book,fem_plain_fem_sws,critical,3/6/2017,13:58,right,false,2487,4,1_2_1_1,word_2_word_1,far,book,Clear_Before,preschool,hanna,2012-12-13,,Polish,English,,,2,1,female
WOWxC,25,11,fem_plain,fem_sws,3,book,lorry,book,lorry,book,fem_plain_fem_sws,critical,3/6/2017,13:58,left,false,1813,2,1_2_1_1,word_2_word_1,far,lorry,Clear_Before,preschool,hanna,2012-12-13,,Polish,English,,,2,1,female
