subject_id,trial_number,trial_id,plain,sws,instruction_number,sound1_item,sound2_item,sound3_item,left_image,right_image,sound_gender,trial_type,date_stamp,time_stamp,side_chosen,accuracy,rt,play_counter,order,pic_position,distance,chosen_pic,test_lang,testing_loc,tester,date_of_birth,ethnicity,native_lang,other_langs,parental_occ,dev_info,birth_order,num_siblings,gender
x8yTb,1,0,mal_plain,mal_sws,1,glasses,fireman,glasses,fireman,glasses,mal_plain_mal_sws,training,3/15/2017,10:11,right,true,6959,2,1_2_1_1,word_1_word_2,far,glasses,Clear_Before,lab,barbora,2012-12-31,,,,,,,0,male
x8yTb,1,0,mal_plain,mal_sws,2,glasses,fireman,glasses,fireman,glasses,mal_plain_mal_sws,training,3/15/2017,10:11,left,true,3118,4,1_2_1_1,word_1_word_2,far,fireman,Clear_Before,lab,barbora,2012-12-31,,,,,,,0,male
x8yTb,1,0,mal_plain,mal_sws,3,glasses,fireman,glasses,fireman,glasses,mal_plain_mal_sws,training,3/15/2017,10:11,right,true,10490,4,1_2_1_1,word_1_word_2,far,glasses,Clear_Before,lab,barbora,2012-12-31,,,,,,,0,male
x8yTb,2,24,mal_plain,mal_sws,1,sink,fish,fish,sink,fish,mal_plain_mal_sws,critical,3/15/2017,10:11,left,true,3199,2,1_2_2_1,word_1_word_2,near,sink,Clear_Before,lab,barbora,2012-12-31,,,,,,,0,male
x8yTb,2,24,mal_plain,mal_sws,2,sink,fish,fish,sink,fish,mal_plain_mal_sws,critical,3/15/2017,10:11,right,true,2717,2,1_2_2_1,word_1_word_2,near,fish,Clear_Before,lab,barbora,2012-12-31,,,,,,,0,male
x8yTb,2,24,mal_plain,mal_sws,3,sink,fish,fish,sink,fish,mal_plain_mal_sws,critical,3/15/2017,10:11,right,true,6189,2,1_2_2_1,word_1_word_2,near,fish,Clear_Before,lab,barbora,2012-12-31,,,,,,,0,male
x8yTb,3,17,mal_plain,mal_sws,1,ambulance,cake,ambulance,cake,ambulance,mal_plain_mal_sws,critical,3/15/2017,10:11,right,true,2372,3,1_2_1_1,word_1_word_2,far,ambulance,Clear_Before,lab,barbora,2012-12-31,,,,,,,0,male
x8yTb,3,17,mal_plain,mal_sws,2,ambulance,cake,ambulance,cake,ambulance,mal_plain_mal_sws,critical,3/15/2017,10:11,left,true,2325,1,1_2_1_1,word_1_word_2,far,cake,Clear_Before,lab,barbora,2012-12-31,,,,,,,0,male
x8yTb,3,17,mal_plain,mal_sws,3,ambulance,cake,ambulance,cake,ambulance,mal_plain_mal_sws,critical,3/15/2017,10:11,left,false,5899,2,1_2_1_1,word_1_word_2,far,cake,Clear_Before,lab,barbora,2012-12-31,,,,,,,0,male
x8yTb,4,3,mal_plain,mal_sws,1,trousers,nose,nose,nose,trousers,mal_plain_mal_sws,critical,3/15/2017,10:11,right,true,2616,2,1_2_2_1,word_2_word_1,near,trousers,Clear_Before,lab,barbora,2012-12-31,,,,,,,0,male
x8yTb,4,3,mal_plain,mal_sws,2,trousers,nose,nose,nose,trousers,mal_plain_mal_sws,critical,3/15/2017,10:11,left,true,2648,2,1_2_2_1,word_2_word_1,near,nose,Clear_Before,lab,barbora,2012-12-31,,,,,,,0,male
x8yTb,4,3,mal_plain,mal_sws,3,trousers,nose,nose,nose,trousers,mal_plain_mal_sws,critical,3/15/2017,10:11,left,true,7489,2,1_2_2_1,word_2_word_1,near,nose,Clear_Before,lab,barbora,2012-12-31,,,,,,,0,male
x8yTb,5,16,mal_plain,mal_sws,1,banana,paintbrush,paintbrush,paintbrush,banana,mal_plain_mal_sws,critical,3/15/2017,10:11,right,true,2984,2,2_1_1_1,word_1_word_2,near,banana,Clear_Before,lab,barbora,2012-12-31,,,,,,,0,male
x8yTb,5,16,mal_plain,mal_sws,2,banana,paintbrush,paintbrush,paintbrush,banana,mal_plain_mal_sws,critical,3/15/2017,10:11,left,true,3009,2,2_1_1_1,word_1_word_2,near,paintbrush,Clear_Before,lab,barbora,2012-12-31,,,,,,,0,male
x8yTb,5,16,mal_plain,mal_sws,3,banana,paintbrush,paintbrush,paintbrush,banana,mal_plain_mal_sws,critical,3/15/2017,10:11,left,true,3545,2,2_1_1_1,word_1_word_2,near,paintbrush,Clear_Before,lab,barbora,2012-12-31,,,,,,,0,male
x8yTb,6,23,mal_plain,mal_sws,1,bath,teddy_bear,bath,teddy_bear,bath,mal_plain_mal_sws,critical,3/15/2017,10:11,right,true,2636,2,2_1_2_1,word_2_word_1,far,bath,Clear_Before,lab,barbora,2012-12-31,,,,,,,0,male
x8yTb,6,23,mal_plain,mal_sws,2,bath,teddy_bear,bath,teddy_bear,bath,mal_plain_mal_sws,critical,3/15/2017,10:11,left,true,2337,2,2_1_2_1,word_2_word_1,far,teddy_bear,Clear_Before,lab,barbora,2012-12-31,,,,,,,0,male
x8yTb,6,23,mal_plain,mal_sws,3,bath,teddy_bear,bath,teddy_bear,bath,mal_plain_mal_sws,critical,3/15/2017,10:11,left,false,3292,2,2_1_2_1,word_2_word_1,far,teddy_bear,Clear_Before,lab,barbora,2012-12-31,,,,,,,0,male
x8yTb,7,13,mal_plain,mal_sws,1,toothbrush,airplane,airplane,airplane,toothbrush,mal_plain_mal_sws,critical,3/15/2017,10:11,right,true,3035,2,2_1_1_1,word_2_word_1,near,toothbrush,Clear_Before,lab,barbora,2012-12-31,,,,,,,0,male
x8yTb,7,13,mal_plain,mal_sws,2,toothbrush,airplane,airplane,airplane,toothbrush,mal_plain_mal_sws,critical,3/15/2017,10:11,left,true,2341,3,2_1_1_1,word_2_word_1,near,airplane,Clear_Before,lab,barbora,2012-12-31,,,,,,,0,male
x8yTb,7,13,mal_plain,mal_sws,3,toothbrush,airplane,airplane,airplane,toothbrush,mal_plain_mal_sws,critical,3/15/2017,10:11,left,true,2957,2,2_1_1_1,word_2_word_1,near,airplane,Clear_Before,lab,barbora,2012-12-31,,,,,,,0,male
x8yTb,8,1,mal_plain,mal_sws,1,spoon,baby,baby,baby,spoon,mal_plain_mal_sws,critical,3/15/2017,10:11,right,true,2453,2,2_1_1_1,word_2_word_1,near,spoon,Clear_Before,lab,barbora,2012-12-31,,,,,,,0,male
x8yTb,8,1,mal_plain,mal_sws,2,spoon,baby,baby,baby,spoon,mal_plain_mal_sws,critical,3/15/2017,10:11,left,true,2314,2,2_1_1_1,word_2_word_1,near,baby,Clear_Before,lab,barbora,2012-12-31,,,,,,,0,male
x8yTb,8,1,mal_plain,mal_sws,3,spoon,baby,baby,baby,spoon,mal_plain_mal_sws,critical,3/15/2017,10:11,left,true,2676,2,2_1_1_1,word_2_word_1,near,baby,Clear_Before,lab,barbora,2012-12-31,,,,,,,0,male
x8yTb,9,19,mal_plain,mal_sws,1,building_blocks,santa,building_blocks,building_blocks,santa,mal_plain_mal_sws,critical,3/15/2017,10:11,left,true,2701,2,2_1_2_1,word_2_word_1,far,building_blocks,Clear_Before,lab,barbora,2012-12-31,,,,,,,0,male
x8yTb,9,19,mal_plain,mal_sws,2,building_blocks,santa,building_blocks,building_blocks,santa,mal_plain_mal_sws,critical,3/15/2017,10:11,right,true,2593,2,2_1_2_1,word_2_word_1,far,santa,Clear_Before,lab,barbora,2012-12-31,,,,,,,0,male
x8yTb,9,19,mal_plain,mal_sws,3,building_blocks,santa,building_blocks,building_blocks,santa,mal_plain_mal_sws,critical,3/15/2017,10:11,right,false,6153,1,2_1_2_1,word_2_word_1,far,santa,Clear_Before,lab,barbora,2012-12-31,,,,,,,0,male
x8yTb,10,11,mal_plain,mal_sws,1,book,lorry,lorry,lorry,book,mal_plain_mal_sws,critical,3/15/2017,10:11,right,true,2470,2,1_2_2_1,word_2_word_1,near,book,Clear_Before,lab,barbora,2012-12-31,,,,,,,0,male
x8yTb,10,11,mal_plain,mal_sws,2,book,lorry,lorry,lorry,book,mal_plain_mal_sws,critical,3/15/2017,10:11,left,true,2149,2,1_2_2_1,word_2_word_1,near,lorry,Clear_Before,lab,barbora,2012-12-31,,,,,,,0,male
x8yTb,10,11,mal_plain,mal_sws,3,book,lorry,lorry,lorry,book,mal_plain_mal_sws,critical,3/15/2017,10:11,left,true,2854,2,1_2_2_1,word_2_word_1,near,lorry,Clear_Before,lab,barbora,2012-12-31,,,,,,,0,male
x8yTb,11,6,mal_plain,mal_sws,1,peas,bird,bird,bird,peas,mal_plain_mal_sws,critical,3/15/2017,10:11,right,true,2542,2,2_1_1_1,word_1_word_2,near,peas,Clear_Before,lab,barbora,2012-12-31,,,,,,,0,male
x8yTb,11,6,mal_plain,mal_sws,2,peas,bird,bird,bird,peas,mal_plain_mal_sws,critical,3/15/2017,10:11,left,true,2306,2,2_1_1_1,word_1_word_2,near,bird,Clear_Before,lab,barbora,2012-12-31,,,,,,,0,male
x8yTb,11,6,mal_plain,mal_sws,3,peas,bird,bird,bird,peas,mal_plain_mal_sws,critical,3/15/2017,10:11,left,true,2585,1,2_1_1_1,word_1_word_2,near,bird,Clear_Before,lab,barbora,2012-12-31,,,,,,,0,male
x8yTb,12,7,mal_plain,mal_sws,1,horse,lolly,lolly,horse,lolly,mal_plain_mal_sws,critical,3/15/2017,10:11,left,true,2813,2,1_2_2_1,word_2_word_1,near,horse,Clear_Before,lab,barbora,2012-12-31,,,,,,,0,male
x8yTb,12,7,mal_plain,mal_sws,2,horse,lolly,lolly,horse,lolly,mal_plain_mal_sws,critical,3/15/2017,10:11,right,true,2194,1,1_2_2_1,word_2_word_1,near,lolly,Clear_Before,lab,barbora,2012-12-31,,,,,,,0,male
x8yTb,12,7,mal_plain,mal_sws,3,horse,lolly,lolly,horse,lolly,mal_plain_mal_sws,critical,3/15/2017,10:11,right,true,2846,2,1_2_2_1,word_2_word_1,near,lolly,Clear_Before,lab,barbora,2012-12-31,,,,,,,0,male
x8yTb,13,2,mal_plain,mal_sws,1,chicken,bed,chicken,chicken,bed,mal_plain_mal_sws,critical,3/15/2017,10:11,left,true,3042,2,2_1_2_1,word_2_word_1,far,chicken,Clear_Before,lab,barbora,2012-12-31,,,,,,,0,male
x8yTb,13,2,mal_plain,mal_sws,2,chicken,bed,chicken,chicken,bed,mal_plain_mal_sws,critical,3/15/2017,10:11,right,true,2452,2,2_1_2_1,word_2_word_1,far,bed,Clear_Before,lab,barbora,2012-12-31,,,,,,,0,male
x8yTb,13,2,mal_plain,mal_sws,3,chicken,bed,chicken,chicken,bed,mal_plain_mal_sws,critical,3/15/2017,10:11,left,true,3578,2,2_1_2_1,word_2_word_1,far,chicken,Clear_Before,lab,barbora,2012-12-31,,,,,,,0,male
x8yTb,14,4,mal_plain,mal_sws,1,strawberry,coat,coat,coat,strawberry,mal_plain_mal_sws,critical,3/15/2017,10:11,right,true,2879,2,2_1_1_1,word_1_word_2,near,strawberry,Clear_Before,lab,barbora,2012-12-31,,,,,,,0,male
x8yTb,14,4,mal_plain,mal_sws,2,strawberry,coat,coat,coat,strawberry,mal_plain_mal_sws,critical,3/15/2017,10:11,left,true,2391,1,2_1_1_1,word_1_word_2,near,coat,Clear_Before,lab,barbora,2012-12-31,,,,,,,0,male
x8yTb,14,4,mal_plain,mal_sws,3,strawberry,coat,coat,coat,strawberry,mal_plain_mal_sws,critical,3/15/2017,10:11,left,true,2879,2,2_1_1_1,word_1_word_2,near,coat,Clear_Before,lab,barbora,2012-12-31,,,,,,,0,male
x8yTb,15,12,mal_plain,mal_sws,1,foot,yoghurt,yoghurt,yoghurt,foot,mal_plain_mal_sws,critical,3/15/2017,10:11,right,true,2338,2,2_1_1_1,word_2_word_1,near,foot,Clear_Before,lab,barbora,2012-12-31,,,,,,,0,male
x8yTb,15,12,mal_plain,mal_sws,2,foot,yoghurt,yoghurt,yoghurt,foot,mal_plain_mal_sws,critical,3/15/2017,10:11,left,true,2950,2,2_1_1_1,word_2_word_1,near,yoghurt,Clear_Before,lab,barbora,2012-12-31,,,,,,,0,male
x8yTb,15,12,mal_plain,mal_sws,3,foot,yoghurt,yoghurt,yoghurt,foot,mal_plain_mal_sws,critical,3/15/2017,10:11,left,true,3120,1,2_1_1_1,word_2_word_1,near,yoghurt,Clear_Before,lab,barbora,2012-12-31,,,,,,,0,male
x8yTb,16,10,mal_plain,mal_sws,1,pig,tshirt,tshirt,tshirt,pig,mal_plain_mal_sws,critical,3/15/2017,10:11,right,true,2443,2,1_2_2_1,word_2_word_1,near,pig,Clear_Before,lab,barbora,2012-12-31,,,,,,,0,male
x8yTb,16,10,mal_plain,mal_sws,2,pig,tshirt,tshirt,tshirt,pig,mal_plain_mal_sws,critical,3/15/2017,10:11,left,true,3244,2,1_2_2_1,word_2_word_1,near,tshirt,Clear_Before,lab,barbora,2012-12-31,,,,,,,0,male
x8yTb,16,10,mal_plain,mal_sws,3,pig,tshirt,tshirt,tshirt,pig,mal_plain_mal_sws,critical,3/15/2017,10:11,left,true,2708,2,1_2_2_1,word_2_word_1,near,tshirt,Clear_Before,lab,barbora,2012-12-31,,,,,,,0,male
x8yTb,17,20,mal_plain,mal_sws,1,rabbit,jumper,rabbit,rabbit,jumper,mal_plain_mal_sws,critical,3/15/2017,10:11,left,true,2628,1,1_2_1_1,word_2_word_1,far,rabbit,Clear_Before,lab,barbora,2012-12-31,,,,,,,0,male
x8yTb,17,20,mal_plain,mal_sws,2,rabbit,jumper,rabbit,rabbit,jumper,mal_plain_mal_sws,critical,3/15/2017,10:11,right,true,2211,2,1_2_1_1,word_2_word_1,far,jumper,Clear_Before,lab,barbora,2012-12-31,,,,,,,0,male
x8yTb,17,20,mal_plain,mal_sws,3,rabbit,jumper,rabbit,rabbit,jumper,mal_plain_mal_sws,critical,3/15/2017,10:11,right,false,2547,1,1_2_1_1,word_2_word_1,far,jumper,Clear_Before,lab,barbora,2012-12-31,,,,,,,0,male
x8yTb,18,18,mal_plain,mal_sws,1,raspberry,ball,raspberry,raspberry,ball,mal_plain_mal_sws,critical,3/15/2017,10:11,left,true,4222,2,2_1_2_1,word_2_word_1,far,raspberry,Clear_Before,lab,barbora,2012-12-31,,,,,,,0,male
x8yTb,18,18,mal_plain,mal_sws,2,raspberry,ball,raspberry,raspberry,ball,mal_plain_mal_sws,critical,3/15/2017,10:11,left,false,3313,2,2_1_2_1,word_2_word_1,far,raspberry,Clear_Before,lab,barbora,2012-12-31,,,,,,,0,male
x8yTb,18,18,mal_plain,mal_sws,3,raspberry,ball,raspberry,raspberry,ball,mal_plain_mal_sws,critical,3/15/2017,10:11,right,false,2688,2,2_1_2_1,word_2_word_1,far,ball,Clear_Before,lab,barbora,2012-12-31,,,,,,,0,male
x8yTb,19,14,mal_plain,mal_sws,1,shoes,cheese,cheese,cheese,shoes,mal_plain_mal_sws,critical,3/15/2017,10:11,right,true,4685,2,1_2_2_1,word_1_word_2,near,shoes,Clear_Before,lab,barbora,2012-12-31,,,,,,,0,male
x8yTb,19,14,mal_plain,mal_sws,2,shoes,cheese,cheese,cheese,shoes,mal_plain_mal_sws,critical,3/15/2017,10:11,right,false,2409,2,1_2_2_1,word_1_word_2,near,shoes,Clear_Before,lab,barbora,2012-12-31,,,,,,,0,male
x8yTb,19,14,mal_plain,mal_sws,3,shoes,cheese,cheese,cheese,shoes,mal_plain_mal_sws,critical,3/15/2017,10:11,left,true,2631,2,1_2_2_1,word_1_word_2,near,cheese,Clear_Before,lab,barbora,2012-12-31,,,,,,,0,male
x8yTb,20,5,mal_plain,mal_sws,1,orange,car,orange,car,orange,mal_plain_mal_sws,critical,3/15/2017,10:11,right,true,3450,2,1_2_1_1,word_2_word_1,far,orange,Clear_Before,lab,barbora,2012-12-31,,,,,,,0,male
x8yTb,20,5,mal_plain,mal_sws,2,orange,car,orange,car,orange,mal_plain_mal_sws,critical,3/15/2017,10:11,right,false,3076,2,1_2_1_1,word_2_word_1,far,orange,Clear_Before,lab,barbora,2012-12-31,,,,,,,0,male
x8yTb,20,5,mal_plain,mal_sws,3,orange,car,orange,car,orange,mal_plain_mal_sws,critical,3/15/2017,10:11,left,false,3133,2,1_2_1_1,word_2_word_1,far,car,Clear_Before,lab,barbora,2012-12-31,,,,,,,0,male
x8yTb,21,22,mal_plain,mal_sws,1,bike,dog,bike,dog,bike,mal_plain_mal_sws,critical,3/15/2017,10:11,right,true,4116,2,2_1_2_1,word_2_word_1,far,bike,Clear_Before,lab,barbora,2012-12-31,,,,,,,0,male
x8yTb,21,22,mal_plain,mal_sws,2,bike,dog,bike,dog,bike,mal_plain_mal_sws,critical,3/15/2017,10:11,right,false,2154,2,2_1_2_1,word_2_word_1,far,bike,Clear_Before,lab,barbora,2012-12-31,,,,,,,0,male
x8yTb,21,22,mal_plain,mal_sws,3,bike,dog,bike,dog,bike,mal_plain_mal_sws,critical,3/15/2017,10:11,left,false,2311,2,2_1_2_1,word_2_word_1,far,dog,Clear_Before,lab,barbora,2012-12-31,,,,,,,0,male
x8yTb,22,8,mal_plain,mal_sws,1,fire_engine,wellyboots,fire_engine,wellyboots,fire_engine,mal_plain_mal_sws,critical,3/15/2017,10:11,right,true,2122,2,1_2_1_1,word_1_word_2,far,fire_engine,Clear_Before,lab,barbora,2012-12-31,,,,,,,0,male
x8yTb,22,8,mal_plain,mal_sws,2,fire_engine,wellyboots,fire_engine,wellyboots,fire_engine,mal_plain_mal_sws,critical,3/15/2017,10:11,right,false,2795,2,1_2_1_1,word_1_word_2,far,fire_engine,Clear_Before,lab,barbora,2012-12-31,,,,,,,0,male
x8yTb,22,8,mal_plain,mal_sws,3,fire_engine,wellyboots,fire_engine,wellyboots,fire_engine,mal_plain_mal_sws,critical,3/15/2017,10:11,left,false,2122,1,1_2_1_1,word_1_word_2,far,wellyboots,Clear_Before,lab,barbora,2012-12-31,,,,,,,0,male
x8yTb,23,15,mal_plain,mal_sws,1,pencil,slide,pencil,slide,pencil,mal_plain_mal_sws,critical,3/15/2017,10:11,right,true,3151,2,2_1_2_1,word_1_word_2,far,pencil,Clear_Before,lab,barbora,2012-12-31,,,,,,,0,male
x8yTb,23,15,mal_plain,mal_sws,2,pencil,slide,pencil,slide,pencil,mal_plain_mal_sws,critical,3/15/2017,10:11,right,false,2121,1,2_1_2_1,word_1_word_2,far,pencil,Clear_Before,lab,barbora,2012-12-31,,,,,,,0,male
x8yTb,23,15,mal_plain,mal_sws,3,pencil,slide,pencil,slide,pencil,mal_plain_mal_sws,critical,3/15/2017,10:11,left,false,2109,2,2_1_2_1,word_1_word_2,far,slide,Clear_Before,lab,barbora,2012-12-31,,,,,,,0,male
x8yTb,24,21,mal_plain,mal_sws,1,sheep,frog,sheep,sheep,frog,mal_plain_mal_sws,critical,3/15/2017,10:11,right,false,5752,2,1_2_1_1,word_2_word_1,far,frog,Clear_Before,lab,barbora,2012-12-31,,,,,,,0,male
x8yTb,24,21,mal_plain,mal_sws,2,sheep,frog,sheep,sheep,frog,mal_plain_mal_sws,critical,3/15/2017,10:11,left,false,2743,1,1_2_1_1,word_2_word_1,far,sheep,Clear_Before,lab,barbora,2012-12-31,,,,,,,0,male
x8yTb,24,21,mal_plain,mal_sws,3,sheep,frog,sheep,sheep,frog,mal_plain_mal_sws,critical,3/15/2017,10:11,right,false,2856,2,1_2_1_1,word_2_word_1,far,frog,Clear_Before,lab,barbora,2012-12-31,,,,,,,0,male
x8yTb,25,9,mal_plain,mal_sws,1,pizza,window,pizza,pizza,window,mal_plain_mal_sws,critical,3/15/2017,10:11,left,true,5246,2,1_2_1_1,word_1_word_2,far,pizza,Clear_Before,lab,barbora,2012-12-31,,,,,,,0,male
x8yTb,25,9,mal_plain,mal_sws,2,pizza,window,pizza,pizza,window,mal_plain_mal_sws,critical,3/15/2017,10:11,left,false,2376,2,1_2_1_1,word_1_word_2,far,pizza,Clear_Before,lab,barbora,2012-12-31,,,,,,,0,male
x8yTb,25,9,mal_plain,mal_sws,3,pizza,window,pizza,pizza,window,mal_plain_mal_sws,critical,3/15/2017,10:11,right,false,1913,1,1_2_1_1,word_1_word_2,far,window,Clear_Before,lab,barbora,2012-12-31,,,,,,,0,male
