subject_id,trial_number,trial_id,plain,sws,instruction_number,sound1_item,sound2_item,sound3_item,left_image,right_image,sound_gender,trial_type,date_stamp,time_stamp,side_chosen,accuracy,rt,play_counter,order,pic_position,distance,chosen_pic,test_lang,testing_loc,tester,date_of_birth,ethnicity,native_lang,other_langs,parental_occ,dev_info,birth_order,num_siblings,gender
Xa4h6,1,0,mal_plain,mal_sws,1,glasses,fireman,fireman,fireman,glasses,mal_plain_mal_sws,training,2/16/2017,10:27,left,false,6628,10,2_1_1_1,word_1_word_2,near,fireman,Clear_After,preschool,hanna,2012-12-02,,Polish,English,,,1,1,female
Xa4h6,1,0,mal_plain,mal_sws,2,glasses,fireman,fireman,fireman,glasses,mal_plain_mal_sws,training,2/16/2017,10:27,right,false,6451,4,2_1_1_1,word_1_word_2,near,glasses,Clear_After,preschool,hanna,2012-12-02,,Polish,English,,,1,1,female
Xa4h6,1,0,mal_plain,mal_sws,3,glasses,fireman,fireman,fireman,glasses,mal_plain_mal_sws,training,2/16/2017,10:27,left,true,2583,2,2_1_1_1,word_1_word_2,near,fireman,Clear_After,preschool,hanna,2012-12-02,,Polish,English,,,1,1,female
Xa4h6,2,2,mal_plain,mal_sws,1,chicken,bed,chicken,chicken,bed,mal_plain_mal_sws,critical,2/16/2017,10:27,left,true,9355,6,1_2_1_1,word_2_word_1,far,chicken,Clear_After,preschool,hanna,2012-12-02,,Polish,English,,,1,1,female
Xa4h6,2,2,mal_plain,mal_sws,2,chicken,bed,chicken,chicken,bed,mal_plain_mal_sws,critical,2/16/2017,10:27,left,false,9653,8,1_2_1_1,word_2_word_1,far,chicken,Clear_After,preschool,hanna,2012-12-02,,Polish,English,,,1,1,female
Xa4h6,2,2,mal_plain,mal_sws,3,chicken,bed,chicken,chicken,bed,mal_plain_mal_sws,critical,2/16/2017,10:27,right,false,3432,4,1_2_1_1,word_2_word_1,far,bed,Clear_After,preschool,hanna,2012-12-02,,Polish,English,,,1,1,female
Xa4h6,3,15,mal_plain,mal_sws,1,slide,pencil,slide,slide,pencil,mal_plain_mal_sws,critical,2/16/2017,10:27,left,true,9654,6,2_1_2_1,word_1_word_2,far,slide,Clear_After,preschool,hanna,2012-12-02,,Polish,English,,,1,1,female
Xa4h6,3,15,mal_plain,mal_sws,2,slide,pencil,slide,slide,pencil,mal_plain_mal_sws,critical,2/16/2017,10:27,left,false,4884,2,2_1_2_1,word_1_word_2,far,slide,Clear_After,preschool,hanna,2012-12-02,,Polish,English,,,1,1,female
Xa4h6,3,15,mal_plain,mal_sws,3,slide,pencil,slide,slide,pencil,mal_plain_mal_sws,critical,2/16/2017,10:27,right,false,4379,2,2_1_2_1,word_1_word_2,far,pencil,Clear_After,preschool,hanna,2012-12-02,,Polish,English,,,1,1,female
Xa4h6,4,11,mal_plain,mal_sws,1,lorry,book,lorry,book,lorry,mal_plain_mal_sws,critical,2/16/2017,10:27,left,false,5118,6,2_1_2_1,word_1_word_2,far,book,Clear_After,preschool,hanna,2012-12-02,,Polish,English,,,1,1,female
Xa4h6,4,11,mal_plain,mal_sws,2,lorry,book,lorry,book,lorry,mal_plain_mal_sws,critical,2/16/2017,10:27,right,false,6717,2,2_1_2_1,word_1_word_2,far,lorry,Clear_After,preschool,hanna,2012-12-02,,Polish,English,,,1,1,female
Xa4h6,4,11,mal_plain,mal_sws,3,lorry,book,lorry,book,lorry,mal_plain_mal_sws,critical,2/16/2017,10:27,left,false,3150,2,2_1_2_1,word_1_word_2,far,book,Clear_After,preschool,hanna,2012-12-02,,Polish,English,,,1,1,female
Xa4h6,5,3,mal_plain,mal_sws,1,nose,trousers,trousers,nose,trousers,mal_plain_mal_sws,critical,2/16/2017,10:27,left,true,2443,4,2_1_1_1,word_2_word_1,near,nose,Clear_After,preschool,hanna,2012-12-02,,Polish,English,,,1,1,female
Xa4h6,5,3,mal_plain,mal_sws,2,nose,trousers,trousers,nose,trousers,mal_plain_mal_sws,critical,2/16/2017,10:27,left,false,3784,2,2_1_1_1,word_2_word_1,near,nose,Clear_After,preschool,hanna,2012-12-02,,Polish,English,,,1,1,female
Xa4h6,5,3,mal_plain,mal_sws,3,nose,trousers,trousers,nose,trousers,mal_plain_mal_sws,critical,2/16/2017,10:27,right,true,4429,1,2_1_1_1,word_2_word_1,near,trousers,Clear_After,preschool,hanna,2012-12-02,,Polish,English,,,1,1,female
Xa4h6,6,18,mal_plain,mal_sws,1,ball,raspberry,raspberry,ball,raspberry,mal_plain_mal_sws,critical,2/16/2017,10:27,left,true,6784,2,2_1_1_1,word_1_word_2,near,ball,Clear_After,preschool,hanna,2012-12-02,,Polish,English,,,1,1,female
Xa4h6,6,18,mal_plain,mal_sws,2,ball,raspberry,raspberry,ball,raspberry,mal_plain_mal_sws,critical,2/16/2017,10:27,left,false,3083,4,2_1_1_1,word_1_word_2,near,ball,Clear_After,preschool,hanna,2012-12-02,,Polish,English,,,1,1,female
Xa4h6,6,18,mal_plain,mal_sws,3,ball,raspberry,raspberry,ball,raspberry,mal_plain_mal_sws,critical,2/16/2017,10:27,right,true,3580,2,2_1_1_1,word_1_word_2,near,raspberry,Clear_After,preschool,hanna,2012-12-02,,Polish,English,,,1,1,female
Xa4h6,7,19,mal_plain,mal_sws,1,santa,building_blocks,building_blocks,building_blocks,santa,mal_plain_mal_sws,critical,2/16/2017,10:27,right,true,5283,4,1_2_2_1,word_2_word_1,near,santa,Clear_After,preschool,hanna,2012-12-02,,Polish,English,,,1,1,female
Xa4h6,7,19,mal_plain,mal_sws,2,santa,building_blocks,building_blocks,building_blocks,santa,mal_plain_mal_sws,critical,2/16/2017,10:27,right,false,4166,2,1_2_2_1,word_2_word_1,near,santa,Clear_After,preschool,hanna,2012-12-02,,Polish,English,,,1,1,female
Xa4h6,7,19,mal_plain,mal_sws,3,santa,building_blocks,building_blocks,building_blocks,santa,mal_plain_mal_sws,critical,2/16/2017,10:27,left,true,3281,1,1_2_2_1,word_2_word_1,near,building_blocks,Clear_After,preschool,hanna,2012-12-02,,Polish,English,,,1,1,female
Xa4h6,8,8,mal_plain,mal_sws,1,fire_engine,wellyboots,fire_engine,wellyboots,fire_engine,mal_plain_mal_sws,critical,2/16/2017,10:27,right,true,3177,2,2_1_2_1,word_1_word_2,far,fire_engine,Clear_After,preschool,hanna,2012-12-02,,Polish,English,,,1,1,female
Xa4h6,8,8,mal_plain,mal_sws,2,fire_engine,wellyboots,fire_engine,wellyboots,fire_engine,mal_plain_mal_sws,critical,2/16/2017,10:27,right,false,3599,3,2_1_2_1,word_1_word_2,far,fire_engine,Clear_After,preschool,hanna,2012-12-02,,Polish,English,,,1,1,female
Xa4h6,8,8,mal_plain,mal_sws,3,fire_engine,wellyboots,fire_engine,wellyboots,fire_engine,mal_plain_mal_sws,critical,2/16/2017,10:27,left,false,3134,2,2_1_2_1,word_1_word_2,far,wellyboots,Clear_After,preschool,hanna,2012-12-02,,Polish,English,,,1,1,female
Xa4h6,9,7,mal_plain,mal_sws,1,lolly,horse,lolly,lolly,horse,mal_plain_mal_sws,critical,2/16/2017,10:27,right,false,3698,4,2_1_2_1,word_1_word_2,far,horse,Clear_After,preschool,hanna,2012-12-02,,Polish,English,,,1,1,female
Xa4h6,9,7,mal_plain,mal_sws,2,lolly,horse,lolly,lolly,horse,mal_plain_mal_sws,critical,2/16/2017,10:27,left,false,5884,2,2_1_2_1,word_1_word_2,far,lolly,Clear_After,preschool,hanna,2012-12-02,,Polish,English,,,1,1,female
Xa4h6,9,7,mal_plain,mal_sws,3,lolly,horse,lolly,lolly,horse,mal_plain_mal_sws,critical,2/16/2017,10:27,right,false,6365,2,2_1_2_1,word_1_word_2,far,horse,Clear_After,preschool,hanna,2012-12-02,,Polish,English,,,1,1,female
Xa4h6,10,13,mal_plain,mal_sws,1,airplane,toothbrush,toothbrush,toothbrush,airplane,mal_plain_mal_sws,critical,2/16/2017,10:27,left,false,5301,4,2_1_1_1,word_1_word_2,near,toothbrush,Clear_After,preschool,hanna,2012-12-02,,Polish,English,,,1,1,female
Xa4h6,10,13,mal_plain,mal_sws,2,airplane,toothbrush,toothbrush,toothbrush,airplane,mal_plain_mal_sws,critical,2/16/2017,10:27,right,false,2776,4,2_1_1_1,word_1_word_2,near,airplane,Clear_After,preschool,hanna,2012-12-02,,Polish,English,,,1,1,female
Xa4h6,10,13,mal_plain,mal_sws,3,airplane,toothbrush,toothbrush,toothbrush,airplane,mal_plain_mal_sws,critical,2/16/2017,10:27,left,true,2444,1,2_1_1_1,word_1_word_2,near,toothbrush,Clear_After,preschool,hanna,2012-12-02,,Polish,English,,,1,1,female
Xa4h6,11,17,mal_plain,mal_sws,1,cake,ambulance,cake,cake,ambulance,mal_plain_mal_sws,critical,2/16/2017,10:27,right,false,2863,4,1_2_1_1,word_1_word_2,far,ambulance,Clear_After,preschool,hanna,2012-12-02,,Polish,English,,,1,1,female
Xa4h6,11,17,mal_plain,mal_sws,2,cake,ambulance,cake,cake,ambulance,mal_plain_mal_sws,critical,2/16/2017,10:27,left,false,2933,2,1_2_1_1,word_1_word_2,far,cake,Clear_After,preschool,hanna,2012-12-02,,Polish,English,,,1,1,female
Xa4h6,11,17,mal_plain,mal_sws,3,cake,ambulance,cake,cake,ambulance,mal_plain_mal_sws,critical,2/16/2017,10:27,right,false,2884,2,1_2_1_1,word_1_word_2,far,ambulance,Clear_After,preschool,hanna,2012-12-02,,Polish,English,,,1,1,female
Xa4h6,12,21,mal_plain,mal_sws,1,sheep,frog,sheep,sheep,frog,mal_plain_mal_sws,critical,2/16/2017,10:27,left,true,2731,4,1_2_1_1,word_2_word_1,far,sheep,Clear_After,preschool,hanna,2012-12-02,,Polish,English,,,1,1,female
Xa4h6,12,21,mal_plain,mal_sws,2,sheep,frog,sheep,sheep,frog,mal_plain_mal_sws,critical,2/16/2017,10:27,left,false,2647,2,1_2_1_1,word_2_word_1,far,sheep,Clear_After,preschool,hanna,2012-12-02,,Polish,English,,,1,1,female
Xa4h6,12,21,mal_plain,mal_sws,3,sheep,frog,sheep,sheep,frog,mal_plain_mal_sws,critical,2/16/2017,10:27,right,false,3815,1,1_2_1_1,word_2_word_1,far,frog,Clear_After,preschool,hanna,2012-12-02,,Polish,English,,,1,1,female
Xa4h6,13,1,mal_plain,mal_sws,1,spoon,baby,baby,spoon,baby,mal_plain_mal_sws,critical,2/16/2017,10:27,right,false,5452,2,1_2_2_1,word_1_word_2,near,baby,Clear_After,preschool,hanna,2012-12-02,,Polish,English,,,1,1,female
Xa4h6,13,1,mal_plain,mal_sws,2,spoon,baby,baby,spoon,baby,mal_plain_mal_sws,critical,2/16/2017,10:27,left,false,2997,1,1_2_2_1,word_1_word_2,near,spoon,Clear_After,preschool,hanna,2012-12-02,,Polish,English,,,1,1,female
Xa4h6,13,1,mal_plain,mal_sws,3,spoon,baby,baby,spoon,baby,mal_plain_mal_sws,critical,2/16/2017,10:27,right,true,2702,1,1_2_2_1,word_1_word_2,near,baby,Clear_After,preschool,hanna,2012-12-02,,Polish,English,,,1,1,female
Xa4h6,14,22,mal_plain,mal_sws,1,dog,bike,bike,bike,dog,mal_plain_mal_sws,critical,2/16/2017,10:27,right,true,10129,6,1_2_2_1,word_1_word_2,near,dog,Clear_After,preschool,hanna,2012-12-02,,Polish,English,,,1,1,female
Xa4h6,14,22,mal_plain,mal_sws,2,dog,bike,bike,bike,dog,mal_plain_mal_sws,critical,2/16/2017,10:27,right,false,2275,2,1_2_2_1,word_1_word_2,near,dog,Clear_After,preschool,hanna,2012-12-02,,Polish,English,,,1,1,female
Xa4h6,14,22,mal_plain,mal_sws,3,dog,bike,bike,bike,dog,mal_plain_mal_sws,critical,2/16/2017,10:27,left,true,2773,1,1_2_2_1,word_1_word_2,near,bike,Clear_After,preschool,hanna,2012-12-02,,Polish,English,,,1,1,female
Xa4h6,15,20,mal_plain,mal_sws,1,jumper,rabbit,jumper,jumper,rabbit,mal_plain_mal_sws,critical,2/16/2017,10:27,right,false,5331,4,2_1_2_1,word_1_word_2,far,rabbit,Clear_After,preschool,hanna,2012-12-02,,Polish,English,,,1,1,female
Xa4h6,15,20,mal_plain,mal_sws,2,jumper,rabbit,jumper,jumper,rabbit,mal_plain_mal_sws,critical,2/16/2017,10:27,left,false,2850,1,2_1_2_1,word_1_word_2,far,jumper,Clear_After,preschool,hanna,2012-12-02,,Polish,English,,,1,1,female
Xa4h6,15,20,mal_plain,mal_sws,3,jumper,rabbit,jumper,jumper,rabbit,mal_plain_mal_sws,critical,2/16/2017,10:27,right,false,2041,1,2_1_2_1,word_1_word_2,far,rabbit,Clear_After,preschool,hanna,2012-12-02,,Polish,English,,,1,1,female
Xa4h6,16,16,mal_plain,mal_sws,1,paintbrush,banana,paintbrush,banana,paintbrush,mal_plain_mal_sws,critical,2/16/2017,10:27,left,false,2966,4,1_2_1_1,word_2_word_1,far,banana,Clear_After,preschool,hanna,2012-12-02,,Polish,English,,,1,1,female
Xa4h6,16,16,mal_plain,mal_sws,2,paintbrush,banana,paintbrush,banana,paintbrush,mal_plain_mal_sws,critical,2/16/2017,10:27,right,false,3948,1,1_2_1_1,word_2_word_1,far,paintbrush,Clear_After,preschool,hanna,2012-12-02,,Polish,English,,,1,1,female
Xa4h6,16,16,mal_plain,mal_sws,3,paintbrush,banana,paintbrush,banana,paintbrush,mal_plain_mal_sws,critical,2/16/2017,10:27,left,false,2181,2,1_2_1_1,word_2_word_1,far,banana,Clear_After,preschool,hanna,2012-12-02,,Polish,English,,,1,1,female
Xa4h6,17,9,mal_plain,mal_sws,1,window,pizza,pizza,pizza,window,mal_plain_mal_sws,critical,2/16/2017,10:27,right,true,6131,2,1_2_2_1,word_1_word_2,near,window,Clear_After,preschool,hanna,2012-12-02,,Polish,English,,,1,1,female
Xa4h6,17,9,mal_plain,mal_sws,2,window,pizza,pizza,pizza,window,mal_plain_mal_sws,critical,2/16/2017,10:27,right,false,2713,1,1_2_2_1,word_1_word_2,near,window,Clear_After,preschool,hanna,2012-12-02,,Polish,English,,,1,1,female
Xa4h6,17,9,mal_plain,mal_sws,3,window,pizza,pizza,pizza,window,mal_plain_mal_sws,critical,2/16/2017,10:27,left,true,3032,2,1_2_2_1,word_1_word_2,near,pizza,Clear_After,preschool,hanna,2012-12-02,,Polish,English,,,1,1,female
Xa4h6,18,6,mal_plain,mal_sws,1,bird,peas,peas,peas,bird,mal_plain_mal_sws,critical,2/16/2017,10:27,right,true,1914,4,2_1_1_1,word_2_word_1,near,bird,Clear_After,preschool,hanna,2012-12-02,,Polish,English,,,1,1,female
Xa4h6,18,6,mal_plain,mal_sws,2,bird,peas,peas,peas,bird,mal_plain_mal_sws,critical,2/16/2017,10:27,right,false,2080,1,2_1_1_1,word_2_word_1,near,bird,Clear_After,preschool,hanna,2012-12-02,,Polish,English,,,1,1,female
Xa4h6,18,6,mal_plain,mal_sws,3,bird,peas,peas,peas,bird,mal_plain_mal_sws,critical,2/16/2017,10:27,left,true,1751,2,2_1_1_1,word_2_word_1,near,peas,Clear_After,preschool,hanna,2012-12-02,,Polish,English,,,1,1,female
Xa4h6,19,23,mal_plain,mal_sws,1,teddy_bear,bath,teddy_bear,teddy_bear,bath,mal_plain_mal_sws,critical,2/16/2017,10:27,left,true,2319,2,2_1_2_1,word_2_word_1,far,teddy_bear,Clear_After,preschool,hanna,2012-12-02,,Polish,English,,,1,1,female
Xa4h6,19,23,mal_plain,mal_sws,2,teddy_bear,bath,teddy_bear,teddy_bear,bath,mal_plain_mal_sws,critical,2/16/2017,10:27,left,false,3220,2,2_1_2_1,word_2_word_1,far,teddy_bear,Clear_After,preschool,hanna,2012-12-02,,Polish,English,,,1,1,female
Xa4h6,19,23,mal_plain,mal_sws,3,teddy_bear,bath,teddy_bear,teddy_bear,bath,mal_plain_mal_sws,critical,2/16/2017,10:27,right,false,3638,1,2_1_2_1,word_2_word_1,far,bath,Clear_After,preschool,hanna,2012-12-02,,Polish,English,,,1,1,female
Xa4h6,20,10,mal_plain,mal_sws,1,pig,tshirt,tshirt,tshirt,pig,mal_plain_mal_sws,critical,2/16/2017,10:27,left,false,3416,2,1_2_2_1,word_2_word_1,near,tshirt,Clear_After,preschool,hanna,2012-12-02,,Polish,English,,,1,1,female
Xa4h6,20,10,mal_plain,mal_sws,2,pig,tshirt,tshirt,tshirt,pig,mal_plain_mal_sws,critical,2/16/2017,10:27,right,false,3047,1,1_2_2_1,word_2_word_1,near,pig,Clear_After,preschool,hanna,2012-12-02,,Polish,English,,,1,1,female
Xa4h6,20,10,mal_plain,mal_sws,3,pig,tshirt,tshirt,tshirt,pig,mal_plain_mal_sws,critical,2/16/2017,10:27,left,true,2216,1,1_2_2_1,word_2_word_1,near,tshirt,Clear_After,preschool,hanna,2012-12-02,,Polish,English,,,1,1,female
Xa4h6,21,12,mal_plain,mal_sws,1,yoghurt,foot,yoghurt,foot,yoghurt,mal_plain_mal_sws,critical,2/16/2017,10:27,left,false,1330,4,1_2_1_1,word_1_word_2,far,foot,Clear_After,preschool,hanna,2012-12-02,,Polish,English,,,1,1,female
Xa4h6,21,12,mal_plain,mal_sws,2,yoghurt,foot,yoghurt,foot,yoghurt,mal_plain_mal_sws,critical,2/16/2017,10:27,right,false,3248,1,1_2_1_1,word_1_word_2,far,yoghurt,Clear_After,preschool,hanna,2012-12-02,,Polish,English,,,1,1,female
Xa4h6,21,12,mal_plain,mal_sws,3,yoghurt,foot,yoghurt,foot,yoghurt,mal_plain_mal_sws,critical,2/16/2017,10:27,left,false,2828,1,1_2_1_1,word_1_word_2,far,foot,Clear_After,preschool,hanna,2012-12-02,,Polish,English,,,1,1,female
Xa4h6,22,4,mal_plain,mal_sws,1,strawberry,coat,coat,coat,strawberry,mal_plain_mal_sws,critical,2/16/2017,10:27,right,true,7328,2,2_1_1_1,word_1_word_2,near,strawberry,Clear_After,preschool,hanna,2012-12-02,,Polish,English,,,1,1,female
Xa4h6,22,4,mal_plain,mal_sws,2,strawberry,coat,coat,coat,strawberry,mal_plain_mal_sws,critical,2/16/2017,10:27,right,false,2180,1,2_1_1_1,word_1_word_2,near,strawberry,Clear_After,preschool,hanna,2012-12-02,,Polish,English,,,1,1,female
Xa4h6,22,4,mal_plain,mal_sws,3,strawberry,coat,coat,coat,strawberry,mal_plain_mal_sws,critical,2/16/2017,10:27,left,true,2577,2,2_1_1_1,word_1_word_2,near,coat,Clear_After,preschool,hanna,2012-12-02,,Polish,English,,,1,1,female
Xa4h6,23,24,mal_plain,mal_sws,1,sink,fish,fish,sink,fish,mal_plain_mal_sws,critical,2/16/2017,10:27,left,true,5282,2,1_2_2_1,word_1_word_2,near,sink,Clear_After,preschool,hanna,2012-12-02,,Polish,English,,,1,1,female
Xa4h6,23,24,mal_plain,mal_sws,2,sink,fish,fish,sink,fish,mal_plain_mal_sws,critical,2/16/2017,10:27,left,false,3311,1,1_2_2_1,word_1_word_2,near,sink,Clear_After,preschool,hanna,2012-12-02,,Polish,English,,,1,1,female
Xa4h6,23,24,mal_plain,mal_sws,3,sink,fish,fish,sink,fish,mal_plain_mal_sws,critical,2/16/2017,10:27,right,true,2618,2,1_2_2_1,word_1_word_2,near,fish,Clear_After,preschool,hanna,2012-12-02,,Polish,English,,,1,1,female
Xa4h6,24,5,mal_plain,mal_sws,1,orange,car,orange,car,orange,mal_plain_mal_sws,critical,2/16/2017,10:27,right,true,1983,4,1_2_1_1,word_2_word_1,far,orange,Clear_After,preschool,hanna,2012-12-02,,Polish,English,,,1,1,female
Xa4h6,24,5,mal_plain,mal_sws,2,orange,car,orange,car,orange,mal_plain_mal_sws,critical,2/16/2017,10:27,right,false,4414,2,1_2_1_1,word_2_word_1,far,orange,Clear_After,preschool,hanna,2012-12-02,,Polish,English,,,1,1,female
Xa4h6,24,5,mal_plain,mal_sws,3,orange,car,orange,car,orange,mal_plain_mal_sws,critical,2/16/2017,10:27,left,false,3382,1,1_2_1_1,word_2_word_1,far,car,Clear_After,preschool,hanna,2012-12-02,,Polish,English,,,1,1,female
Xa4h6,25,14,mal_plain,mal_sws,1,cheese,shoes,cheese,shoes,cheese,mal_plain_mal_sws,critical,2/16/2017,10:27,right,true,7016,2,1_2_1_1,word_2_word_1,far,cheese,Clear_After,preschool,hanna,2012-12-02,,Polish,English,,,1,1,female
Xa4h6,25,14,mal_plain,mal_sws,2,cheese,shoes,cheese,shoes,cheese,mal_plain_mal_sws,critical,2/16/2017,10:27,right,false,2623,1,1_2_1_1,word_2_word_1,far,cheese,Clear_After,preschool,hanna,2012-12-02,,Polish,English,,,1,1,female
Xa4h6,25,14,mal_plain,mal_sws,3,cheese,shoes,cheese,shoes,cheese,mal_plain_mal_sws,critical,2/16/2017,10:27,left,false,2063,1,1_2_1_1,word_2_word_1,far,shoes,Clear_After,preschool,hanna,2012-12-02,,Polish,English,,,1,1,female
