subject_id,trial_number,trial_id,plain,sws,instruction_number,sound1_item,sound2_item,sound3_item,left_image,right_image,sound_gender,trial_type,date_stamp,time_stamp,side_chosen,accuracy,rt,play_counter,order,pic_position,distance,chosen_pic,test_lang,testing_loc,tester,date_of_birth,ethnicity,native_lang,other_langs,parental_occ,dev_info,birth_order,num_siblings,gender
XXHyJ,1,0,mal_plain,fem_sws,1,glasses,fireman,fireman,fireman,glasses,mal_plain_fem_sws,training,2/27/2017,16:29,right,true,2676,3,1_2_2_1,word_1_word_2,near,glasses,Clear_Before,home,hanna,2012-07-29,,English ,French,,,1,1,male
XXHyJ,1,0,mal_plain,fem_sws,2,glasses,fireman,fireman,fireman,glasses,mal_plain_fem_sws,training,2/27/2017,16:29,left,true,2323,4,1_2_2_1,word_1_word_2,near,fireman,Clear_Before,home,hanna,2012-07-29,,English ,French,,,1,1,male
XXHyJ,1,0,mal_plain,fem_sws,3,glasses,fireman,fireman,fireman,glasses,mal_plain_fem_sws,training,2/27/2017,16:29,left,true,3783,1,1_2_2_1,word_1_word_2,near,fireman,Clear_Before,home,hanna,2012-07-29,,English ,French,,,1,1,male
XXHyJ,2,3,mal_plain,fem_sws,1,trousers,nose,nose,nose,trousers,mal_plain_fem_sws,critical,2/27/2017,16:29,right,true,2900,2,2_1_1_1,word_2_word_1,near,trousers,Clear_Before,home,hanna,2012-07-29,,English ,French,,,1,1,male
XXHyJ,2,3,mal_plain,fem_sws,2,trousers,nose,nose,nose,trousers,mal_plain_fem_sws,critical,2/27/2017,16:29,left,true,2456,1,2_1_1_1,word_2_word_1,near,nose,Clear_Before,home,hanna,2012-07-29,,English ,French,,,1,1,male
XXHyJ,2,3,mal_plain,fem_sws,3,trousers,nose,nose,nose,trousers,mal_plain_fem_sws,critical,2/27/2017,16:29,left,true,2950,2,2_1_1_1,word_2_word_1,near,nose,Clear_Before,home,hanna,2012-07-29,,English ,French,,,1,1,male
XXHyJ,3,4,mal_plain,fem_sws,1,coat,strawberry,coat,strawberry,coat,mal_plain_fem_sws,critical,2/27/2017,16:29,right,true,3179,2,1_2_1_1,word_2_word_1,far,coat,Clear_Before,home,hanna,2012-07-29,,English ,French,,,1,1,male
XXHyJ,3,4,mal_plain,fem_sws,2,coat,strawberry,coat,strawberry,coat,mal_plain_fem_sws,critical,2/27/2017,16:29,left,true,2420,2,1_2_1_1,word_2_word_1,far,strawberry,Clear_Before,home,hanna,2012-07-29,,English ,French,,,1,1,male
XXHyJ,3,4,mal_plain,fem_sws,3,coat,strawberry,coat,strawberry,coat,mal_plain_fem_sws,critical,2/27/2017,16:29,right,true,2844,4,1_2_1_1,word_2_word_1,far,coat,Clear_Before,home,hanna,2012-07-29,,English ,French,,,1,1,male
XXHyJ,4,9,mal_plain,fem_sws,1,window,pizza,window,window,pizza,mal_plain_fem_sws,critical,2/27/2017,16:29,left,true,2449,2,1_2_1_1,word_2_word_1,far,window,Clear_Before,home,hanna,2012-07-29,,English ,French,,,1,1,male
XXHyJ,4,9,mal_plain,fem_sws,2,window,pizza,window,window,pizza,mal_plain_fem_sws,critical,2/27/2017,16:29,right,true,2236,1,1_2_1_1,word_2_word_1,far,pizza,Clear_Before,home,hanna,2012-07-29,,English ,French,,,1,1,male
XXHyJ,4,9,mal_plain,fem_sws,3,window,pizza,window,window,pizza,mal_plain_fem_sws,critical,2/27/2017,16:29,left,true,2427,2,1_2_1_1,word_2_word_1,far,window,Clear_Before,home,hanna,2012-07-29,,English ,French,,,1,1,male
XXHyJ,5,23,mal_plain,fem_sws,1,bath,teddy_bear,bath,teddy_bear,bath,mal_plain_fem_sws,critical,2/27/2017,16:29,right,true,2446,2,1_2_1_1,word_2_word_1,far,bath,Clear_Before,home,hanna,2012-07-29,,English ,French,,,1,1,male
XXHyJ,5,23,mal_plain,fem_sws,2,bath,teddy_bear,bath,teddy_bear,bath,mal_plain_fem_sws,critical,2/27/2017,16:29,left,true,2218,1,1_2_1_1,word_2_word_1,far,teddy_bear,Clear_Before,home,hanna,2012-07-29,,English ,French,,,1,1,male
XXHyJ,5,23,mal_plain,fem_sws,3,bath,teddy_bear,bath,teddy_bear,bath,mal_plain_fem_sws,critical,2/27/2017,16:29,right,true,3691,4,1_2_1_1,word_2_word_1,far,bath,Clear_Before,home,hanna,2012-07-29,,English ,French,,,1,1,male
XXHyJ,6,18,mal_plain,fem_sws,1,raspberry,ball,ball,raspberry,ball,mal_plain_fem_sws,critical,2/27/2017,16:29,left,true,3517,2,2_1_1_1,word_2_word_1,near,raspberry,Clear_Before,home,hanna,2012-07-29,,English ,French,,,1,1,male
XXHyJ,6,18,mal_plain,fem_sws,2,raspberry,ball,ball,raspberry,ball,mal_plain_fem_sws,critical,2/27/2017,16:29,right,true,343,3,2_1_1_1,word_2_word_1,near,ball,Clear_Before,home,hanna,2012-07-29,,English ,French,,,1,1,male
XXHyJ,6,18,mal_plain,fem_sws,3,raspberry,ball,ball,raspberry,ball,mal_plain_fem_sws,critical,2/27/2017,16:29,right,true,3200,4,2_1_1_1,word_2_word_1,near,ball,Clear_Before,home,hanna,2012-07-29,,English ,French,,,1,1,male
XXHyJ,7,12,mal_plain,fem_sws,1,yoghurt,foot,foot,yoghurt,foot,mal_plain_fem_sws,critical,2/27/2017,16:29,left,true,2850,2,1_2_2_1,word_2_word_1,near,yoghurt,Clear_Before,home,hanna,2012-07-29,,English ,French,,,1,1,male
XXHyJ,7,12,mal_plain,fem_sws,2,yoghurt,foot,foot,yoghurt,foot,mal_plain_fem_sws,critical,2/27/2017,16:29,right,true,2679,2,1_2_2_1,word_2_word_1,near,foot,Clear_Before,home,hanna,2012-07-29,,English ,French,,,1,1,male
XXHyJ,7,12,mal_plain,fem_sws,3,yoghurt,foot,foot,yoghurt,foot,mal_plain_fem_sws,critical,2/27/2017,16:29,right,true,2439,2,1_2_2_1,word_2_word_1,near,foot,Clear_Before,home,hanna,2012-07-29,,English ,French,,,1,1,male
XXHyJ,8,14,mal_plain,fem_sws,1,cheese,shoes,shoes,shoes,cheese,mal_plain_fem_sws,critical,2/27/2017,16:29,right,true,2629,2,1_2_2_1,word_2_word_1,near,cheese,Clear_Before,home,hanna,2012-07-29,,English ,French,,,1,1,male
XXHyJ,8,14,mal_plain,fem_sws,2,cheese,shoes,shoes,shoes,cheese,mal_plain_fem_sws,critical,2/27/2017,16:29,left,true,2052,1,1_2_2_1,word_2_word_1,near,shoes,Clear_Before,home,hanna,2012-07-29,,English ,French,,,1,1,male
XXHyJ,8,14,mal_plain,fem_sws,3,cheese,shoes,shoes,shoes,cheese,mal_plain_fem_sws,critical,2/27/2017,16:29,left,true,3015,1,1_2_2_1,word_2_word_1,near,shoes,Clear_Before,home,hanna,2012-07-29,,English ,French,,,1,1,male
XXHyJ,9,5,mal_plain,fem_sws,1,car,orange,car,orange,car,mal_plain_fem_sws,critical,2/27/2017,16:29,right,true,2237,2,2_1_2_1,word_1_word_2,far,car,Clear_Before,home,hanna,2012-07-29,,English ,French,,,1,1,male
XXHyJ,9,5,mal_plain,fem_sws,2,car,orange,car,orange,car,mal_plain_fem_sws,critical,2/27/2017,16:29,left,true,1006,2,2_1_2_1,word_1_word_2,far,orange,Clear_Before,home,hanna,2012-07-29,,English ,French,,,1,1,male
XXHyJ,9,5,mal_plain,fem_sws,3,car,orange,car,orange,car,mal_plain_fem_sws,critical,2/27/2017,16:29,right,true,2798,2,2_1_2_1,word_1_word_2,far,car,Clear_Before,home,hanna,2012-07-29,,English ,French,,,1,1,male
XXHyJ,10,11,mal_plain,fem_sws,1,lorry,book,book,book,lorry,mal_plain_fem_sws,critical,2/27/2017,16:29,right,true,2276,2,2_1_1_1,word_1_word_2,near,lorry,Clear_Before,home,hanna,2012-07-29,,English ,French,,,1,1,male
XXHyJ,10,11,mal_plain,fem_sws,2,lorry,book,book,book,lorry,mal_plain_fem_sws,critical,2/27/2017,16:29,left,true,2029,2,2_1_1_1,word_1_word_2,near,book,Clear_Before,home,hanna,2012-07-29,,English ,French,,,1,1,male
XXHyJ,10,11,mal_plain,fem_sws,3,lorry,book,book,book,lorry,mal_plain_fem_sws,critical,2/27/2017,16:29,left,true,2710,2,2_1_1_1,word_1_word_2,near,book,Clear_Before,home,hanna,2012-07-29,,English ,French,,,1,1,male
XXHyJ,11,6,mal_plain,fem_sws,1,bird,peas,bird,peas,bird,mal_plain_fem_sws,critical,2/27/2017,16:29,right,true,2880,2,2_1_2_1,word_2_word_1,far,bird,Clear_Before,home,hanna,2012-07-29,,English ,French,,,1,1,male
XXHyJ,11,6,mal_plain,fem_sws,2,bird,peas,bird,peas,bird,mal_plain_fem_sws,critical,2/27/2017,16:29,left,true,2121,2,2_1_2_1,word_2_word_1,far,peas,Clear_Before,home,hanna,2012-07-29,,English ,French,,,1,1,male
XXHyJ,11,6,mal_plain,fem_sws,3,bird,peas,bird,peas,bird,mal_plain_fem_sws,critical,2/27/2017,16:29,right,true,2529,1,2_1_2_1,word_2_word_1,far,bird,Clear_Before,home,hanna,2012-07-29,,English ,French,,,1,1,male
XXHyJ,12,24,mal_plain,fem_sws,1,fish,sink,sink,sink,fish,mal_plain_fem_sws,critical,2/27/2017,16:29,right,true,2494,2,1_2_2_1,word_1_word_2,near,fish,Clear_Before,home,hanna,2012-07-29,,English ,French,,,1,1,male
XXHyJ,12,24,mal_plain,fem_sws,2,fish,sink,sink,sink,fish,mal_plain_fem_sws,critical,2/27/2017,16:29,left,true,2744,1,1_2_2_1,word_1_word_2,near,sink,Clear_Before,home,hanna,2012-07-29,,English ,French,,,1,1,male
XXHyJ,12,24,mal_plain,fem_sws,3,fish,sink,sink,sink,fish,mal_plain_fem_sws,critical,2/27/2017,16:29,right,false,3701,1,1_2_2_1,word_1_word_2,near,fish,Clear_Before,home,hanna,2012-07-29,,English ,French,,,1,1,male
XXHyJ,13,13,mal_plain,fem_sws,1,airplane,toothbrush,airplane,airplane,toothbrush,mal_plain_fem_sws,critical,2/27/2017,16:29,left,true,2259,2,1_2_1_1,word_2_word_1,far,airplane,Clear_Before,home,hanna,2012-07-29,,English ,French,,,1,1,male
XXHyJ,13,13,mal_plain,fem_sws,2,airplane,toothbrush,airplane,airplane,toothbrush,mal_plain_fem_sws,critical,2/27/2017,16:29,right,true,2167,1,1_2_1_1,word_2_word_1,far,toothbrush,Clear_Before,home,hanna,2012-07-29,,English ,French,,,1,1,male
XXHyJ,13,13,mal_plain,fem_sws,3,airplane,toothbrush,airplane,airplane,toothbrush,mal_plain_fem_sws,critical,2/27/2017,16:29,left,true,3056,1,1_2_1_1,word_2_word_1,far,airplane,Clear_Before,home,hanna,2012-07-29,,English ,French,,,1,1,male
XXHyJ,14,20,mal_plain,fem_sws,1,jumper,rabbit,jumper,rabbit,jumper,mal_plain_fem_sws,critical,2/27/2017,16:29,right,true,2866,2,2_1_2_1,word_2_word_1,far,jumper,Clear_Before,home,hanna,2012-07-29,,English ,French,,,1,1,male
XXHyJ,14,20,mal_plain,fem_sws,2,jumper,rabbit,jumper,rabbit,jumper,mal_plain_fem_sws,critical,2/27/2017,16:29,left,true,2222,1,2_1_2_1,word_2_word_1,far,rabbit,Clear_Before,home,hanna,2012-07-29,,English ,French,,,1,1,male
XXHyJ,14,20,mal_plain,fem_sws,3,jumper,rabbit,jumper,rabbit,jumper,mal_plain_fem_sws,critical,2/27/2017,16:29,right,true,2274,2,2_1_2_1,word_2_word_1,far,jumper,Clear_Before,home,hanna,2012-07-29,,English ,French,,,1,1,male
XXHyJ,15,19,mal_plain,fem_sws,1,building_blocks,santa,santa,santa,building_blocks,mal_plain_fem_sws,critical,2/27/2017,16:29,right,true,2725,2,2_1_1_1,word_1_word_2,near,building_blocks,Clear_Before,home,hanna,2012-07-29,,English ,French,,,1,1,male
XXHyJ,15,19,mal_plain,fem_sws,2,building_blocks,santa,santa,santa,building_blocks,mal_plain_fem_sws,critical,2/27/2017,16:29,left,true,2837,1,2_1_1_1,word_1_word_2,near,santa,Clear_Before,home,hanna,2012-07-29,,English ,French,,,1,1,male
XXHyJ,15,19,mal_plain,fem_sws,3,building_blocks,santa,santa,santa,building_blocks,mal_plain_fem_sws,critical,2/27/2017,16:29,left,true,3735,2,2_1_1_1,word_1_word_2,near,santa,Clear_Before,home,hanna,2012-07-29,,English ,French,,,1,1,male
XXHyJ,16,16,mal_plain,fem_sws,1,paintbrush,banana,paintbrush,banana,paintbrush,mal_plain_fem_sws,critical,2/27/2017,16:29,right,true,2911,2,1_2_1_1,word_2_word_1,far,paintbrush,Clear_Before,home,hanna,2012-07-29,,English ,French,,,1,1,male
XXHyJ,16,16,mal_plain,fem_sws,2,paintbrush,banana,paintbrush,banana,paintbrush,mal_plain_fem_sws,critical,2/27/2017,16:29,left,true,1818,2,1_2_1_1,word_2_word_1,far,banana,Clear_Before,home,hanna,2012-07-29,,English ,French,,,1,1,male
XXHyJ,16,16,mal_plain,fem_sws,3,paintbrush,banana,paintbrush,banana,paintbrush,mal_plain_fem_sws,critical,2/27/2017,16:29,right,true,3683,1,1_2_1_1,word_2_word_1,far,paintbrush,Clear_Before,home,hanna,2012-07-29,,English ,French,,,1,1,male
XXHyJ,17,10,mal_plain,fem_sws,1,tshirt,pig,tshirt,tshirt,pig,mal_plain_fem_sws,critical,2/27/2017,16:29,left,true,2978,2,1_2_1_1,word_2_word_1,far,tshirt,Clear_Before,home,hanna,2012-07-29,,English ,French,,,1,1,male
XXHyJ,17,10,mal_plain,fem_sws,2,tshirt,pig,tshirt,tshirt,pig,mal_plain_fem_sws,critical,2/27/2017,16:29,right,true,2035,1,1_2_1_1,word_2_word_1,far,pig,Clear_Before,home,hanna,2012-07-29,,English ,French,,,1,1,male
XXHyJ,17,10,mal_plain,fem_sws,3,tshirt,pig,tshirt,tshirt,pig,mal_plain_fem_sws,critical,2/27/2017,16:29,left,true,3621,1,1_2_1_1,word_2_word_1,far,tshirt,Clear_Before,home,hanna,2012-07-29,,English ,French,,,1,1,male
XXHyJ,18,8,mal_plain,fem_sws,1,wellyboots,fire_engine,fire_engine,wellyboots,fire_engine,mal_plain_fem_sws,critical,2/27/2017,16:29,right,false,4127,2,2_1_1_1,word_1_word_2,near,fire_engine,Clear_Before,home,hanna,2012-07-29,,English ,French,,,1,1,male
XXHyJ,18,8,mal_plain,fem_sws,2,wellyboots,fire_engine,fire_engine,wellyboots,fire_engine,mal_plain_fem_sws,critical,2/27/2017,16:29,left,false,2417,2,2_1_1_1,word_1_word_2,near,wellyboots,Clear_Before,home,hanna,2012-07-29,,English ,French,,,1,1,male
XXHyJ,18,8,mal_plain,fem_sws,3,wellyboots,fire_engine,fire_engine,wellyboots,fire_engine,mal_plain_fem_sws,critical,2/27/2017,16:29,right,true,2745,1,2_1_1_1,word_1_word_2,near,fire_engine,Clear_Before,home,hanna,2012-07-29,,English ,French,,,1,1,male
XXHyJ,19,15,mal_plain,fem_sws,1,pencil,slide,slide,pencil,slide,mal_plain_fem_sws,critical,2/27/2017,16:29,right,false,3803,2,2_1_1_1,word_2_word_1,near,slide,Clear_Before,home,hanna,2012-07-29,,English ,French,,,1,1,male
XXHyJ,19,15,mal_plain,fem_sws,2,pencil,slide,slide,pencil,slide,mal_plain_fem_sws,critical,2/27/2017,16:29,left,false,2142,2,2_1_1_1,word_2_word_1,near,pencil,Clear_Before,home,hanna,2012-07-29,,English ,French,,,1,1,male
XXHyJ,19,15,mal_plain,fem_sws,3,pencil,slide,slide,pencil,slide,mal_plain_fem_sws,critical,2/27/2017,16:29,right,true,2515,1,2_1_1_1,word_2_word_1,near,slide,Clear_Before,home,hanna,2012-07-29,,English ,French,,,1,1,male
XXHyJ,20,7,mal_plain,fem_sws,1,horse,lolly,horse,lolly,horse,mal_plain_fem_sws,critical,2/27/2017,16:29,right,true,2568,4,2_1_2_1,word_1_word_2,far,horse,Clear_Before,home,hanna,2012-07-29,,English ,French,,,1,1,male
XXHyJ,20,7,mal_plain,fem_sws,2,horse,lolly,horse,lolly,horse,mal_plain_fem_sws,critical,2/27/2017,16:29,left,true,1623,2,2_1_2_1,word_1_word_2,far,lolly,Clear_Before,home,hanna,2012-07-29,,English ,French,,,1,1,male
XXHyJ,20,7,mal_plain,fem_sws,3,horse,lolly,horse,lolly,horse,mal_plain_fem_sws,critical,2/27/2017,16:29,left,false,2600,2,2_1_2_1,word_1_word_2,far,lolly,Clear_Before,home,hanna,2012-07-29,,English ,French,,,1,1,male
XXHyJ,21,2,mal_plain,fem_sws,1,bed,chicken,bed,chicken,bed,mal_plain_fem_sws,critical,2/27/2017,16:29,right,true,3482,2,2_1_2_1,word_2_word_1,far,bed,Clear_Before,home,hanna,2012-07-29,,English ,French,,,1,1,male
XXHyJ,21,2,mal_plain,fem_sws,2,bed,chicken,bed,chicken,bed,mal_plain_fem_sws,critical,2/27/2017,16:29,left,true,2372,1,2_1_2_1,word_2_word_1,far,chicken,Clear_Before,home,hanna,2012-07-29,,English ,French,,,1,1,male
XXHyJ,21,2,mal_plain,fem_sws,3,bed,chicken,bed,chicken,bed,mal_plain_fem_sws,critical,2/27/2017,16:29,left,false,2668,2,2_1_2_1,word_2_word_1,far,chicken,Clear_Before,home,hanna,2012-07-29,,English ,French,,,1,1,male
XXHyJ,22,17,mal_plain,fem_sws,1,cake,ambulance,ambulance,cake,ambulance,mal_plain_fem_sws,critical,2/27/2017,16:29,right,false,2574,4,1_2_2_1,word_1_word_2,near,ambulance,Clear_Before,home,hanna,2012-07-29,,English ,French,,,1,1,male
XXHyJ,22,17,mal_plain,fem_sws,2,cake,ambulance,ambulance,cake,ambulance,mal_plain_fem_sws,critical,2/27/2017,16:29,left,false,3003,2,1_2_2_1,word_1_word_2,near,cake,Clear_Before,home,hanna,2012-07-29,,English ,French,,,1,1,male
XXHyJ,22,17,mal_plain,fem_sws,3,cake,ambulance,ambulance,cake,ambulance,mal_plain_fem_sws,critical,2/27/2017,16:29,right,true,3482,2,1_2_2_1,word_1_word_2,near,ambulance,Clear_Before,home,hanna,2012-07-29,,English ,French,,,1,1,male
XXHyJ,23,21,mal_plain,fem_sws,1,frog,sheep,sheep,frog,sheep,mal_plain_fem_sws,critical,2/27/2017,16:29,right,false,2689,2,1_2_2_1,word_1_word_2,near,sheep,Clear_Before,home,hanna,2012-07-29,,English ,French,,,1,1,male
XXHyJ,23,21,mal_plain,fem_sws,2,frog,sheep,sheep,frog,sheep,mal_plain_fem_sws,critical,2/27/2017,16:29,left,false,2901,1,1_2_2_1,word_1_word_2,near,frog,Clear_Before,home,hanna,2012-07-29,,English ,French,,,1,1,male
XXHyJ,23,21,mal_plain,fem_sws,3,frog,sheep,sheep,frog,sheep,mal_plain_fem_sws,critical,2/27/2017,16:29,right,true,2214,2,1_2_2_1,word_1_word_2,near,sheep,Clear_Before,home,hanna,2012-07-29,,English ,French,,,1,1,male
XXHyJ,24,1,mal_plain,fem_sws,1,baby,spoon,baby,baby,spoon,mal_plain_fem_sws,critical,2/27/2017,16:29,left,true,3213,2,2_1_2_1,word_2_word_1,far,baby,Clear_Before,home,hanna,2012-07-29,,English ,French,,,1,1,male
XXHyJ,24,1,mal_plain,fem_sws,2,baby,spoon,baby,baby,spoon,mal_plain_fem_sws,critical,2/27/2017,16:29,left,false,2442,2,2_1_2_1,word_2_word_1,far,baby,Clear_Before,home,hanna,2012-07-29,,English ,French,,,1,1,male
XXHyJ,24,1,mal_plain,fem_sws,3,baby,spoon,baby,baby,spoon,mal_plain_fem_sws,critical,2/27/2017,16:29,right,false,1841,1,2_1_2_1,word_2_word_1,far,spoon,Clear_Before,home,hanna,2012-07-29,,English ,French,,,1,1,male
XXHyJ,25,22,mal_plain,fem_sws,1,bike,dog,bike,dog,bike,mal_plain_fem_sws,critical,2/27/2017,16:29,left,false,11688,4,1_2_1_1,word_2_word_1,far,dog,Clear_Before,home,hanna,2012-07-29,,English ,French,,,1,1,male
XXHyJ,25,22,mal_plain,fem_sws,2,bike,dog,bike,dog,bike,mal_plain_fem_sws,critical,2/27/2017,16:29,right,false,3018,2,1_2_1_1,word_2_word_1,far,bike,Clear_Before,home,hanna,2012-07-29,,English ,French,,,1,1,male
XXHyJ,25,22,mal_plain,fem_sws,3,bike,dog,bike,dog,bike,mal_plain_fem_sws,critical,2/27/2017,16:29,left,false,2100,1,1_2_1_1,word_2_word_1,far,dog,Clear_Before,home,hanna,2012-07-29,,English ,French,,,1,1,male
