subject_id,trial_number,trial_id,plain,sws,instruction_number,sound1_item,sound2_item,sound3_item,left_image,right_image,sound_gender,trial_type,date_stamp,time_stamp,side_chosen,accuracy,rt,play_counter,order,pic_position,distance,chosen_pic,test_lang,testing_loc,tester,date_of_birth,ethnicity,native_lang,other_langs,parental_occ,dev_info,birth_order,num_siblings,gender
xxpeU,1,0,mal_plain,mal_sws,1,glasses,fireman,glasses,fireman,glasses,mal_plain_mal_sws,training,3/9/2017,15:06,right,true,4514,2,1_2_1_1,word_1_word_2,far,glasses,Clear_Before,preschool,hanna,2013-11-20,,English,,,,1,1,male
xxpeU,1,0,mal_plain,mal_sws,2,glasses,fireman,glasses,fireman,glasses,mal_plain_mal_sws,training,3/9/2017,15:06,left,true,2595,4,1_2_1_1,word_1_word_2,far,fireman,Clear_Before,preschool,hanna,2013-11-20,,English,,,,1,1,male
xxpeU,1,0,mal_plain,mal_sws,3,glasses,fireman,glasses,fireman,glasses,mal_plain_mal_sws,training,3/9/2017,15:06,right,true,5461,2,1_2_1_1,word_1_word_2,far,glasses,Clear_Before,preschool,hanna,2013-11-20,,English,,,,1,1,male
xxpeU,2,2,mal_plain,mal_sws,1,bed,chicken,chicken,chicken,bed,mal_plain_mal_sws,critical,3/9/2017,15:06,right,true,3080,4,1_2_2_1,word_2_word_1,near,bed,Clear_Before,preschool,hanna,2013-11-20,,English,,,,1,1,male
xxpeU,2,2,mal_plain,mal_sws,2,bed,chicken,chicken,chicken,bed,mal_plain_mal_sws,critical,3/9/2017,15:06,left,true,2907,1,1_2_2_1,word_2_word_1,near,chicken,Clear_Before,preschool,hanna,2013-11-20,,English,,,,1,1,male
xxpeU,2,2,mal_plain,mal_sws,3,bed,chicken,chicken,chicken,bed,mal_plain_mal_sws,critical,3/9/2017,15:06,right,false,4012,3,1_2_2_1,word_2_word_1,near,bed,Clear_Before,preschool,hanna,2013-11-20,,English,,,,1,1,male
xxpeU,3,4,mal_plain,mal_sws,1,coat,strawberry,coat,strawberry,coat,mal_plain_mal_sws,critical,3/9/2017,15:06,right,true,3079,2,1_2_1_1,word_2_word_1,far,coat,Clear_Before,preschool,hanna,2013-11-20,,English,,,,1,1,male
xxpeU,3,4,mal_plain,mal_sws,2,coat,strawberry,coat,strawberry,coat,mal_plain_mal_sws,critical,3/9/2017,15:06,left,true,2462,1,1_2_1_1,word_2_word_1,far,strawberry,Clear_Before,preschool,hanna,2013-11-20,,English,,,,1,1,male
xxpeU,3,4,mal_plain,mal_sws,3,coat,strawberry,coat,strawberry,coat,mal_plain_mal_sws,critical,3/9/2017,15:06,right,true,4560,1,1_2_1_1,word_2_word_1,far,coat,Clear_Before,preschool,hanna,2013-11-20,,English,,,,1,1,male
xxpeU,4,13,mal_plain,mal_sws,1,airplane,toothbrush,airplane,airplane,toothbrush,mal_plain_mal_sws,critical,3/9/2017,15:06,left,true,2481,4,2_1_2_1,word_2_word_1,far,airplane,Clear_Before,preschool,hanna,2013-11-20,,English,,,,1,1,male
xxpeU,4,13,mal_plain,mal_sws,2,airplane,toothbrush,airplane,airplane,toothbrush,mal_plain_mal_sws,critical,3/9/2017,15:06,right,true,2204,2,2_1_2_1,word_2_word_1,far,toothbrush,Clear_Before,preschool,hanna,2013-11-20,,English,,,,1,1,male
xxpeU,4,13,mal_plain,mal_sws,3,airplane,toothbrush,airplane,airplane,toothbrush,mal_plain_mal_sws,critical,3/9/2017,15:06,left,true,3617,3,2_1_2_1,word_2_word_1,far,airplane,Clear_Before,preschool,hanna,2013-11-20,,English,,,,1,1,male
xxpeU,5,19,mal_plain,mal_sws,1,santa,building_blocks,building_blocks,santa,building_blocks,mal_plain_mal_sws,critical,3/9/2017,15:06,left,true,3014,2,2_1_1_1,word_1_word_2,near,santa,Clear_Before,preschool,hanna,2013-11-20,,English,,,,1,1,male
xxpeU,5,19,mal_plain,mal_sws,2,santa,building_blocks,building_blocks,santa,building_blocks,mal_plain_mal_sws,critical,3/9/2017,15:06,right,true,2607,1,2_1_1_1,word_1_word_2,near,building_blocks,Clear_Before,preschool,hanna,2013-11-20,,English,,,,1,1,male
xxpeU,5,19,mal_plain,mal_sws,3,santa,building_blocks,building_blocks,santa,building_blocks,mal_plain_mal_sws,critical,3/9/2017,15:06,right,true,4124,2,2_1_1_1,word_1_word_2,near,building_blocks,Clear_Before,preschool,hanna,2013-11-20,,English,,,,1,1,male
xxpeU,6,17,mal_plain,mal_sws,1,ambulance,cake,ambulance,cake,ambulance,mal_plain_mal_sws,critical,3/9/2017,15:06,right,true,2465,2,2_1_2_1,word_1_word_2,far,ambulance,Clear_Before,preschool,hanna,2013-11-20,,English,,,,1,1,male
xxpeU,6,17,mal_plain,mal_sws,2,ambulance,cake,ambulance,cake,ambulance,mal_plain_mal_sws,critical,3/9/2017,15:06,left,true,2061,2,2_1_2_1,word_1_word_2,far,cake,Clear_Before,preschool,hanna,2013-11-20,,English,,,,1,1,male
xxpeU,6,17,mal_plain,mal_sws,3,ambulance,cake,ambulance,cake,ambulance,mal_plain_mal_sws,critical,3/9/2017,15:06,right,true,5060,2,2_1_2_1,word_1_word_2,far,ambulance,Clear_Before,preschool,hanna,2013-11-20,,English,,,,1,1,male
xxpeU,7,20,mal_plain,mal_sws,1,rabbit,jumper,rabbit,jumper,rabbit,mal_plain_mal_sws,critical,3/9/2017,15:06,right,true,2297,2,1_2_1_1,word_1_word_2,far,rabbit,Clear_Before,preschool,hanna,2013-11-20,,English,,,,1,1,male
xxpeU,7,20,mal_plain,mal_sws,2,rabbit,jumper,rabbit,jumper,rabbit,mal_plain_mal_sws,critical,3/9/2017,15:06,left,true,6538,1,1_2_1_1,word_1_word_2,far,jumper,Clear_Before,preschool,hanna,2013-11-20,,English,,,,1,1,male
xxpeU,7,20,mal_plain,mal_sws,3,rabbit,jumper,rabbit,jumper,rabbit,mal_plain_mal_sws,critical,3/9/2017,15:06,right,true,397,2,1_2_1_1,word_1_word_2,far,rabbit,Clear_Before,preschool,hanna,2013-11-20,,English,,,,1,1,male
xxpeU,8,9,mal_plain,mal_sws,1,window,pizza,pizza,pizza,window,mal_plain_mal_sws,critical,3/9/2017,15:06,right,true,2202,2,1_2_2_1,word_1_word_2,near,window,Clear_Before,preschool,hanna,2013-11-20,,English,,,,1,1,male
xxpeU,8,9,mal_plain,mal_sws,2,window,pizza,pizza,pizza,window,mal_plain_mal_sws,critical,3/9/2017,15:06,left,true,3511,1,1_2_2_1,word_1_word_2,near,pizza,Clear_Before,preschool,hanna,2013-11-20,,English,,,,1,1,male
xxpeU,8,9,mal_plain,mal_sws,3,window,pizza,pizza,pizza,window,mal_plain_mal_sws,critical,3/9/2017,15:06,right,false,3603,2,1_2_2_1,word_1_word_2,near,window,Clear_Before,preschool,hanna,2013-11-20,,English,,,,1,1,male
xxpeU,9,15,mal_plain,mal_sws,1,pencil,slide,pencil,pencil,slide,mal_plain_mal_sws,critical,3/9/2017,15:06,left,true,2440,2,2_1_2_1,word_2_word_1,far,pencil,Clear_Before,preschool,hanna,2013-11-20,,English,,,,1,1,male
xxpeU,9,15,mal_plain,mal_sws,2,pencil,slide,pencil,pencil,slide,mal_plain_mal_sws,critical,3/9/2017,15:06,right,true,2583,1,2_1_2_1,word_2_word_1,far,slide,Clear_Before,preschool,hanna,2013-11-20,,English,,,,1,1,male
xxpeU,9,15,mal_plain,mal_sws,3,pencil,slide,pencil,pencil,slide,mal_plain_mal_sws,critical,3/9/2017,15:06,right,false,3316,1,2_1_2_1,word_2_word_1,far,slide,Clear_Before,preschool,hanna,2013-11-20,,English,,,,1,1,male
xxpeU,10,21,mal_plain,mal_sws,1,sheep,frog,frog,sheep,frog,mal_plain_mal_sws,critical,3/9/2017,15:06,left,true,2394,2,1_2_2_1,word_2_word_1,near,sheep,Clear_Before,preschool,hanna,2013-11-20,,English,,,,1,1,male
xxpeU,10,21,mal_plain,mal_sws,2,sheep,frog,frog,sheep,frog,mal_plain_mal_sws,critical,3/9/2017,15:06,right,true,270,1,1_2_2_1,word_2_word_1,near,frog,Clear_Before,preschool,hanna,2013-11-20,,English,,,,1,1,male
xxpeU,10,21,mal_plain,mal_sws,3,sheep,frog,frog,sheep,frog,mal_plain_mal_sws,critical,3/9/2017,15:06,left,false,6041,4,1_2_2_1,word_2_word_1,near,sheep,Clear_Before,preschool,hanna,2013-11-20,,English,,,,1,1,male
xxpeU,11,7,mal_plain,mal_sws,1,lolly,horse,lolly,lolly,horse,mal_plain_mal_sws,critical,3/9/2017,15:06,left,true,3333,2,2_1_2_1,word_1_word_2,far,lolly,Clear_Before,preschool,hanna,2013-11-20,,English,,,,1,1,male
xxpeU,11,7,mal_plain,mal_sws,2,lolly,horse,lolly,lolly,horse,mal_plain_mal_sws,critical,3/9/2017,15:06,right,true,2680,2,2_1_2_1,word_1_word_2,far,horse,Clear_Before,preschool,hanna,2013-11-20,,English,,,,1,1,male
xxpeU,11,7,mal_plain,mal_sws,3,lolly,horse,lolly,lolly,horse,mal_plain_mal_sws,critical,3/9/2017,15:06,left,true,9625,2,2_1_2_1,word_1_word_2,far,lolly,Clear_Before,preschool,hanna,2013-11-20,,English,,,,1,1,male
xxpeU,12,8,mal_plain,mal_sws,1,wellyboots,fire_engine,fire_engine,fire_engine,wellyboots,mal_plain_mal_sws,critical,3/9/2017,15:06,right,true,2813,2,2_1_1_1,word_2_word_1,near,wellyboots,Clear_Before,preschool,hanna,2013-11-20,,English,,,,1,1,male
xxpeU,12,8,mal_plain,mal_sws,2,wellyboots,fire_engine,fire_engine,fire_engine,wellyboots,mal_plain_mal_sws,critical,3/9/2017,15:06,left,true,2888,2,2_1_1_1,word_2_word_1,near,fire_engine,Clear_Before,preschool,hanna,2013-11-20,,English,,,,1,1,male
xxpeU,12,8,mal_plain,mal_sws,3,wellyboots,fire_engine,fire_engine,fire_engine,wellyboots,mal_plain_mal_sws,critical,3/9/2017,15:06,right,false,3529,2,2_1_1_1,word_2_word_1,near,wellyboots,Clear_Before,preschool,hanna,2013-11-20,,English,,,,1,1,male
xxpeU,13,6,mal_plain,mal_sws,1,bird,peas,peas,peas,bird,mal_plain_mal_sws,critical,3/9/2017,15:06,right,true,2225,2,1_2_2_1,word_2_word_1,near,bird,Clear_Before,preschool,hanna,2013-11-20,,English,,,,1,1,male
xxpeU,13,6,mal_plain,mal_sws,2,bird,peas,peas,peas,bird,mal_plain_mal_sws,critical,3/9/2017,15:06,left,true,184,1,1_2_2_1,word_2_word_1,near,peas,Clear_Before,preschool,hanna,2013-11-20,,English,,,,1,1,male
xxpeU,13,6,mal_plain,mal_sws,3,bird,peas,peas,peas,bird,mal_plain_mal_sws,critical,3/9/2017,15:06,left,true,5991,2,1_2_2_1,word_2_word_1,near,peas,Clear_Before,preschool,hanna,2013-11-20,,English,,,,1,1,male
xxpeU,14,12,mal_plain,mal_sws,1,foot,yoghurt,foot,yoghurt,foot,mal_plain_mal_sws,critical,3/9/2017,15:06,right,true,2965,2,1_2_1_1,word_2_word_1,far,foot,Clear_Before,preschool,hanna,2013-11-20,,English,,,,1,1,male
xxpeU,14,12,mal_plain,mal_sws,2,foot,yoghurt,foot,yoghurt,foot,mal_plain_mal_sws,critical,3/9/2017,15:06,left,true,2400,2,1_2_1_1,word_2_word_1,far,yoghurt,Clear_Before,preschool,hanna,2013-11-20,,English,,,,1,1,male
xxpeU,14,12,mal_plain,mal_sws,3,foot,yoghurt,foot,yoghurt,foot,mal_plain_mal_sws,critical,3/9/2017,15:06,right,true,3688,2,1_2_1_1,word_2_word_1,far,foot,Clear_Before,preschool,hanna,2013-11-20,,English,,,,1,1,male
xxpeU,15,5,mal_plain,mal_sws,1,car,orange,orange,orange,car,mal_plain_mal_sws,critical,3/9/2017,15:06,right,true,2082,2,2_1_1_1,word_1_word_2,near,car,Clear_Before,preschool,hanna,2013-11-20,,English,,,,1,1,male
xxpeU,15,5,mal_plain,mal_sws,2,car,orange,orange,orange,car,mal_plain_mal_sws,critical,3/9/2017,15:06,left,true,3430,1,2_1_1_1,word_1_word_2,near,orange,Clear_Before,preschool,hanna,2013-11-20,,English,,,,1,1,male
xxpeU,15,5,mal_plain,mal_sws,3,car,orange,orange,orange,car,mal_plain_mal_sws,critical,3/9/2017,15:06,right,false,3581,3,2_1_1_1,word_1_word_2,near,car,Clear_Before,preschool,hanna,2013-11-20,,English,,,,1,1,male
xxpeU,16,3,mal_plain,mal_sws,1,trousers,nose,trousers,trousers,nose,mal_plain_mal_sws,critical,3/9/2017,15:06,left,true,2540,2,1_2_1_1,word_1_word_2,far,trousers,Clear_Before,preschool,hanna,2013-11-20,,English,,,,1,1,male
xxpeU,16,3,mal_plain,mal_sws,2,trousers,nose,trousers,trousers,nose,mal_plain_mal_sws,critical,3/9/2017,15:06,right,true,2352,1,1_2_1_1,word_1_word_2,far,nose,Clear_Before,preschool,hanna,2013-11-20,,English,,,,1,1,male
xxpeU,16,3,mal_plain,mal_sws,3,trousers,nose,trousers,trousers,nose,mal_plain_mal_sws,critical,3/9/2017,15:06,right,false,4533,2,1_2_1_1,word_1_word_2,far,nose,Clear_Before,preschool,hanna,2013-11-20,,English,,,,1,1,male
xxpeU,17,24,mal_plain,mal_sws,1,fish,sink,fish,fish,sink,mal_plain_mal_sws,critical,3/9/2017,15:06,left,true,2615,2,2_1_2_1,word_2_word_1,far,fish,Clear_Before,preschool,hanna,2013-11-20,,English,,,,1,1,male
xxpeU,17,24,mal_plain,mal_sws,2,fish,sink,fish,fish,sink,mal_plain_mal_sws,critical,3/9/2017,15:06,right,true,2844,1,2_1_2_1,word_2_word_1,far,sink,Clear_Before,preschool,hanna,2013-11-20,,English,,,,1,1,male
xxpeU,17,24,mal_plain,mal_sws,3,fish,sink,fish,fish,sink,mal_plain_mal_sws,critical,3/9/2017,15:06,right,false,8043,1,2_1_2_1,word_2_word_1,far,sink,Clear_Before,preschool,hanna,2013-11-20,,English,,,,1,1,male
xxpeU,18,23,mal_plain,mal_sws,1,teddy_bear,bath,bath,bath,teddy_bear,mal_plain_mal_sws,critical,3/9/2017,15:06,right,true,3716,2,1_2_2_1,word_1_word_2,near,teddy_bear,Clear_Before,preschool,hanna,2013-11-20,,English,,,,1,1,male
xxpeU,18,23,mal_plain,mal_sws,2,teddy_bear,bath,bath,bath,teddy_bear,mal_plain_mal_sws,critical,3/9/2017,15:06,right,false,597,2,1_2_2_1,word_1_word_2,near,teddy_bear,Clear_Before,preschool,hanna,2013-11-20,,English,,,,1,1,male
xxpeU,18,23,mal_plain,mal_sws,3,teddy_bear,bath,bath,bath,teddy_bear,mal_plain_mal_sws,critical,3/9/2017,15:06,left,true,2209,2,1_2_2_1,word_1_word_2,near,bath,Clear_Before,preschool,hanna,2013-11-20,,English,,,,1,1,male
xxpeU,19,16,mal_plain,mal_sws,1,paintbrush,banana,banana,banana,paintbrush,mal_plain_mal_sws,critical,3/9/2017,15:06,left,false,3918,2,2_1_1_1,word_2_word_1,near,banana,Clear_Before,preschool,hanna,2013-11-20,,English,,,,1,1,male
xxpeU,19,16,mal_plain,mal_sws,2,paintbrush,banana,banana,banana,paintbrush,mal_plain_mal_sws,critical,3/9/2017,15:06,right,false,2933,2,2_1_1_1,word_2_word_1,near,paintbrush,Clear_Before,preschool,hanna,2013-11-20,,English,,,,1,1,male
xxpeU,19,16,mal_plain,mal_sws,3,paintbrush,banana,banana,banana,paintbrush,mal_plain_mal_sws,critical,3/9/2017,15:06,left,true,2788,1,2_1_1_1,word_2_word_1,near,banana,Clear_Before,preschool,hanna,2013-11-20,,English,,,,1,1,male
xxpeU,20,11,mal_plain,mal_sws,1,lorry,book,book,book,lorry,mal_plain_mal_sws,critical,3/9/2017,15:06,right,true,3398,6,2_1_1_1,word_1_word_2,near,lorry,Clear_Before,preschool,hanna,2013-11-20,,English,,,,1,1,male
xxpeU,20,11,mal_plain,mal_sws,2,lorry,book,book,book,lorry,mal_plain_mal_sws,critical,3/9/2017,15:06,right,false,3330,1,2_1_1_1,word_1_word_2,near,lorry,Clear_Before,preschool,hanna,2013-11-20,,English,,,,1,1,male
xxpeU,20,11,mal_plain,mal_sws,3,lorry,book,book,book,lorry,mal_plain_mal_sws,critical,3/9/2017,15:06,left,true,2524,1,2_1_1_1,word_1_word_2,near,book,Clear_Before,preschool,hanna,2013-11-20,,English,,,,1,1,male
xxpeU,21,14,mal_plain,mal_sws,1,shoes,cheese,shoes,shoes,cheese,mal_plain_mal_sws,critical,3/9/2017,15:06,left,true,3334,2,2_1_2_1,word_2_word_1,far,shoes,Clear_Before,preschool,hanna,2013-11-20,,English,,,,1,1,male
xxpeU,21,14,mal_plain,mal_sws,2,shoes,cheese,shoes,shoes,cheese,mal_plain_mal_sws,critical,3/9/2017,15:06,left,false,2821,1,2_1_2_1,word_2_word_1,far,shoes,Clear_Before,preschool,hanna,2013-11-20,,English,,,,1,1,male
xxpeU,21,14,mal_plain,mal_sws,3,shoes,cheese,shoes,shoes,cheese,mal_plain_mal_sws,critical,3/9/2017,15:06,right,false,2900,1,2_1_2_1,word_2_word_1,far,cheese,Clear_Before,preschool,hanna,2013-11-20,,English,,,,1,1,male
xxpeU,22,1,mal_plain,mal_sws,1,spoon,baby,baby,spoon,baby,mal_plain_mal_sws,critical,3/9/2017,15:06,right,false,2882,1,1_2_2_1,word_1_word_2,near,baby,Clear_Before,preschool,hanna,2013-11-20,,English,,,,1,1,male
xxpeU,22,1,mal_plain,mal_sws,2,spoon,baby,baby,spoon,baby,mal_plain_mal_sws,critical,3/9/2017,15:06,left,false,2699,1,1_2_2_1,word_1_word_2,near,spoon,Clear_Before,preschool,hanna,2013-11-20,,English,,,,1,1,male
xxpeU,22,1,mal_plain,mal_sws,3,spoon,baby,baby,spoon,baby,mal_plain_mal_sws,critical,3/9/2017,15:06,right,true,2838,1,1_2_2_1,word_1_word_2,near,baby,Clear_Before,preschool,hanna,2013-11-20,,English,,,,1,1,male
xxpeU,23,22,mal_plain,mal_sws,1,bike,dog,dog,dog,bike,mal_plain_mal_sws,critical,3/9/2017,15:06,right,true,3190,2,2_1_1_1,word_2_word_1,near,bike,Clear_Before,preschool,hanna,2013-11-20,,English,,,,1,1,male
xxpeU,23,22,mal_plain,mal_sws,2,bike,dog,dog,dog,bike,mal_plain_mal_sws,critical,3/9/2017,15:06,right,false,3035,1,2_1_1_1,word_2_word_1,near,bike,Clear_Before,preschool,hanna,2013-11-20,,English,,,,1,1,male
xxpeU,23,22,mal_plain,mal_sws,3,bike,dog,dog,dog,bike,mal_plain_mal_sws,critical,3/9/2017,15:06,left,true,2251,2,2_1_1_1,word_2_word_1,near,dog,Clear_Before,preschool,hanna,2013-11-20,,English,,,,1,1,male
xxpeU,24,10,mal_plain,mal_sws,1,tshirt,pig,tshirt,pig,tshirt,mal_plain_mal_sws,critical,3/9/2017,15:06,right,true,5373,1,1_2_1_1,word_1_word_2,far,tshirt,Clear_Before,preschool,hanna,2013-11-20,,English,,,,1,1,male
xxpeU,24,10,mal_plain,mal_sws,2,tshirt,pig,tshirt,pig,tshirt,mal_plain_mal_sws,critical,3/9/2017,15:06,right,false,2978,2,1_2_1_1,word_1_word_2,far,tshirt,Clear_Before,preschool,hanna,2013-11-20,,English,,,,1,1,male
xxpeU,24,10,mal_plain,mal_sws,3,tshirt,pig,tshirt,pig,tshirt,mal_plain_mal_sws,critical,3/9/2017,15:06,left,false,2064,1,1_2_1_1,word_1_word_2,far,pig,Clear_Before,preschool,hanna,2013-11-20,,English,,,,1,1,male
xxpeU,25,18,mal_plain,mal_sws,1,raspberry,ball,raspberry,ball,raspberry,mal_plain_mal_sws,critical,3/9/2017,15:06,right,true,4663,2,1_2_1_1,word_1_word_2,far,raspberry,Clear_Before,preschool,hanna,2013-11-20,,English,,,,1,1,male
xxpeU,25,18,mal_plain,mal_sws,2,raspberry,ball,raspberry,ball,raspberry,mal_plain_mal_sws,critical,3/9/2017,15:06,right,false,3378,2,1_2_1_1,word_1_word_2,far,raspberry,Clear_Before,preschool,hanna,2013-11-20,,English,,,,1,1,male
xxpeU,25,18,mal_plain,mal_sws,3,raspberry,ball,raspberry,ball,raspberry,mal_plain_mal_sws,critical,3/9/2017,15:06,left,false,2453,2,1_2_1_1,word_1_word_2,far,ball,Clear_Before,preschool,hanna,2013-11-20,,English,,,,1,1,male
