subject_id,trial_number,trial_id,plain,sws,instruction_number,sound1_item,sound2_item,sound3_item,left_image,right_image,sound_gender,trial_type,date_stamp,time_stamp,side_chosen,accuracy,rt,play_counter,order,pic_position,distance,chosen_pic,test_lang,testing_loc,tester,date_of_birth,ethnicity,native_lang,other_langs,parental_occ,dev_info,birth_order,num_siblings,gender
Y8fgW,1,0,fem_plain,fem_sws,1,glasses,fireman,fireman,fireman,glasses,fem_plain_fem_sws,training,3/16/2017,10:21,right,true,2567,4,1_2_2_1,word_1_word_2,near,glasses,Clear_Before,preschool,hanna,2014-06-14,,English,Urdu  punjabi,,,,,female
Y8fgW,1,0,fem_plain,fem_sws,2,glasses,fireman,fireman,fireman,glasses,fem_plain_fem_sws,training,3/16/2017,10:21,right,false,1562,2,1_2_2_1,word_1_word_2,near,glasses,Clear_Before,preschool,hanna,2014-06-14,,English,Urdu  punjabi,,,,,female
Y8fgW,1,0,fem_plain,fem_sws,3,glasses,fireman,fireman,fireman,glasses,fem_plain_fem_sws,training,3/16/2017,10:21,left,true,4188,4,1_2_2_1,word_1_word_2,near,fireman,Clear_Before,preschool,hanna,2014-06-14,,English,Urdu  punjabi,,,,,female
Y8fgW,2,17,fem_plain,fem_sws,1,cake,ambulance,ambulance,ambulance,cake,fem_plain_fem_sws,critical,3/16/2017,10:21,right,true,2357,4,2_1_1_1,word_2_word_1,near,cake,Clear_Before,preschool,hanna,2014-06-14,,English,Urdu  punjabi,,,,,female
Y8fgW,2,17,fem_plain,fem_sws,2,cake,ambulance,ambulance,ambulance,cake,fem_plain_fem_sws,critical,3/16/2017,10:21,left,true,2326,1,2_1_1_1,word_2_word_1,near,ambulance,Clear_Before,preschool,hanna,2014-06-14,,English,Urdu  punjabi,,,,,female
Y8fgW,2,17,fem_plain,fem_sws,3,cake,ambulance,ambulance,ambulance,cake,fem_plain_fem_sws,critical,3/16/2017,10:21,right,false,6489,4,2_1_1_1,word_2_word_1,near,cake,Clear_Before,preschool,hanna,2014-06-14,,English,Urdu  punjabi,,,,,female
Y8fgW,3,2,fem_plain,fem_sws,1,chicken,bed,bed,bed,chicken,fem_plain_fem_sws,critical,3/16/2017,10:21,right,true,2757,2,1_2_2_1,word_1_word_2,near,chicken,Clear_Before,preschool,hanna,2014-06-14,,English,Urdu  punjabi,,,,,female
Y8fgW,3,2,fem_plain,fem_sws,2,chicken,bed,bed,bed,chicken,fem_plain_fem_sws,critical,3/16/2017,10:21,left,true,558,2,1_2_2_1,word_1_word_2,near,bed,Clear_Before,preschool,hanna,2014-06-14,,English,Urdu  punjabi,,,,,female
Y8fgW,3,2,fem_plain,fem_sws,3,chicken,bed,bed,bed,chicken,fem_plain_fem_sws,critical,3/16/2017,10:21,right,false,7219,2,1_2_2_1,word_1_word_2,near,chicken,Clear_Before,preschool,hanna,2014-06-14,,English,Urdu  punjabi,,,,,female
Y8fgW,4,21,fem_plain,fem_sws,1,frog,sheep,sheep,sheep,frog,fem_plain_fem_sws,critical,3/16/2017,10:21,right,true,2738,2,1_2_2_1,word_2_word_1,near,frog,Clear_Before,preschool,hanna,2014-06-14,,English,Urdu  punjabi,,,,,female
Y8fgW,4,21,fem_plain,fem_sws,2,frog,sheep,sheep,sheep,frog,fem_plain_fem_sws,critical,3/16/2017,10:21,left,true,2130,1,1_2_2_1,word_2_word_1,near,sheep,Clear_Before,preschool,hanna,2014-06-14,,English,Urdu  punjabi,,,,,female
Y8fgW,4,21,fem_plain,fem_sws,3,frog,sheep,sheep,sheep,frog,fem_plain_fem_sws,critical,3/16/2017,10:21,right,false,1882,3,1_2_2_1,word_2_word_1,near,frog,Clear_Before,preschool,hanna,2014-06-14,,English,Urdu  punjabi,,,,,female
Y8fgW,5,9,fem_plain,fem_sws,1,pizza,window,pizza,pizza,window,fem_plain_fem_sws,critical,3/16/2017,10:21,left,true,2450,2,1_2_1_1,word_1_word_2,far,pizza,Clear_Before,preschool,hanna,2014-06-14,,English,Urdu  punjabi,,,,,female
Y8fgW,5,9,fem_plain,fem_sws,2,pizza,window,pizza,pizza,window,fem_plain_fem_sws,critical,3/16/2017,10:21,right,true,807,1,1_2_1_1,word_1_word_2,far,window,Clear_Before,preschool,hanna,2014-06-14,,English,Urdu  punjabi,,,,,female
Y8fgW,5,9,fem_plain,fem_sws,3,pizza,window,pizza,pizza,window,fem_plain_fem_sws,critical,3/16/2017,10:21,right,false,7705,1,1_2_1_1,word_1_word_2,far,window,Clear_Before,preschool,hanna,2014-06-14,,English,Urdu  punjabi,,,,,female
Y8fgW,6,20,fem_plain,fem_sws,1,rabbit,jumper,jumper,jumper,rabbit,fem_plain_fem_sws,critical,3/16/2017,10:21,right,true,2065,2,1_2_2_1,word_1_word_2,near,rabbit,Clear_Before,preschool,hanna,2014-06-14,,English,Urdu  punjabi,,,,,female
Y8fgW,6,20,fem_plain,fem_sws,2,rabbit,jumper,jumper,jumper,rabbit,fem_plain_fem_sws,critical,3/16/2017,10:21,left,true,1788,1,1_2_2_1,word_1_word_2,near,jumper,Clear_Before,preschool,hanna,2014-06-14,,English,Urdu  punjabi,,,,,female
Y8fgW,6,20,fem_plain,fem_sws,3,rabbit,jumper,jumper,jumper,rabbit,fem_plain_fem_sws,critical,3/16/2017,10:21,right,false,7561,1,1_2_2_1,word_1_word_2,near,rabbit,Clear_Before,preschool,hanna,2014-06-14,,English,Urdu  punjabi,,,,,female
Y8fgW,7,24,fem_plain,fem_sws,1,sink,fish,sink,fish,sink,fem_plain_fem_sws,critical,3/16/2017,10:21,right,true,2744,2,2_1_2_1,word_2_word_1,far,sink,Clear_Before,preschool,hanna,2014-06-14,,English,Urdu  punjabi,,,,,female
Y8fgW,7,24,fem_plain,fem_sws,2,sink,fish,sink,fish,sink,fem_plain_fem_sws,critical,3/16/2017,10:21,left,true,2162,1,2_1_2_1,word_2_word_1,far,fish,Clear_Before,preschool,hanna,2014-06-14,,English,Urdu  punjabi,,,,,female
Y8fgW,7,24,fem_plain,fem_sws,3,sink,fish,sink,fish,sink,fem_plain_fem_sws,critical,3/16/2017,10:21,left,false,6193,2,2_1_2_1,word_2_word_1,far,fish,Clear_Before,preschool,hanna,2014-06-14,,English,Urdu  punjabi,,,,,female
Y8fgW,8,7,fem_plain,fem_sws,1,horse,lolly,horse,horse,lolly,fem_plain_fem_sws,critical,3/16/2017,10:21,left,true,2209,2,1_2_1_1,word_2_word_1,far,horse,Clear_Before,preschool,hanna,2014-06-14,,English,Urdu  punjabi,,,,,female
Y8fgW,8,7,fem_plain,fem_sws,2,horse,lolly,horse,horse,lolly,fem_plain_fem_sws,critical,3/16/2017,10:21,right,true,3002,4,1_2_1_1,word_2_word_1,far,lolly,Clear_Before,preschool,hanna,2014-06-14,,English,Urdu  punjabi,,,,,female
Y8fgW,8,7,fem_plain,fem_sws,3,horse,lolly,horse,horse,lolly,fem_plain_fem_sws,critical,3/16/2017,10:21,right,false,5086,1,1_2_1_1,word_2_word_1,far,lolly,Clear_Before,preschool,hanna,2014-06-14,,English,Urdu  punjabi,,,,,female
Y8fgW,9,22,fem_plain,fem_sws,1,bike,dog,bike,dog,bike,fem_plain_fem_sws,critical,3/16/2017,10:21,right,true,2325,1,1_2_1_1,word_2_word_1,far,bike,Clear_Before,preschool,hanna,2014-06-14,,English,Urdu  punjabi,,,,,female
Y8fgW,9,22,fem_plain,fem_sws,2,bike,dog,bike,dog,bike,fem_plain_fem_sws,critical,3/16/2017,10:21,left,true,589,2,1_2_1_1,word_2_word_1,far,dog,Clear_Before,preschool,hanna,2014-06-14,,English,Urdu  punjabi,,,,,female
Y8fgW,9,22,fem_plain,fem_sws,3,bike,dog,bike,dog,bike,fem_plain_fem_sws,critical,3/16/2017,10:21,right,true,7566,4,1_2_1_1,word_2_word_1,far,bike,Clear_Before,preschool,hanna,2014-06-14,,English,Urdu  punjabi,,,,,female
Y8fgW,10,18,fem_plain,fem_sws,1,raspberry,ball,raspberry,ball,raspberry,fem_plain_fem_sws,critical,3/16/2017,10:21,right,true,3340,1,1_2_1_1,word_1_word_2,far,raspberry,Clear_Before,preschool,hanna,2014-06-14,,English,Urdu  punjabi,,,,,female
Y8fgW,10,18,fem_plain,fem_sws,2,raspberry,ball,raspberry,ball,raspberry,fem_plain_fem_sws,critical,3/16/2017,10:21,left,true,2491,2,1_2_1_1,word_1_word_2,far,ball,Clear_Before,preschool,hanna,2014-06-14,,English,Urdu  punjabi,,,,,female
Y8fgW,10,18,fem_plain,fem_sws,3,raspberry,ball,raspberry,ball,raspberry,fem_plain_fem_sws,critical,3/16/2017,10:21,right,true,5570,1,1_2_1_1,word_1_word_2,far,raspberry,Clear_Before,preschool,hanna,2014-06-14,,English,Urdu  punjabi,,,,,female
Y8fgW,11,6,fem_plain,fem_sws,1,peas,bird,bird,bird,peas,fem_plain_fem_sws,critical,3/16/2017,10:21,right,true,2295,2,2_1_1_1,word_1_word_2,near,peas,Clear_Before,preschool,hanna,2014-06-14,,English,Urdu  punjabi,,,,,female
Y8fgW,11,6,fem_plain,fem_sws,2,peas,bird,bird,bird,peas,fem_plain_fem_sws,critical,3/16/2017,10:21,left,true,2016,2,2_1_1_1,word_1_word_2,near,bird,Clear_Before,preschool,hanna,2014-06-14,,English,Urdu  punjabi,,,,,female
Y8fgW,11,6,fem_plain,fem_sws,3,peas,bird,bird,bird,peas,fem_plain_fem_sws,critical,3/16/2017,10:21,right,false,624,2,2_1_1_1,word_1_word_2,near,peas,Clear_Before,preschool,hanna,2014-06-14,,English,Urdu  punjabi,,,,,female
Y8fgW,12,14,fem_plain,fem_sws,1,cheese,shoes,shoes,cheese,shoes,fem_plain_fem_sws,critical,3/16/2017,10:21,left,true,2555,2,2_1_1_1,word_1_word_2,near,cheese,Clear_Before,preschool,hanna,2014-06-14,,English,Urdu  punjabi,,,,,female
Y8fgW,12,14,fem_plain,fem_sws,2,cheese,shoes,shoes,cheese,shoes,fem_plain_fem_sws,critical,3/16/2017,10:21,right,true,644,1,2_1_1_1,word_1_word_2,near,shoes,Clear_Before,preschool,hanna,2014-06-14,,English,Urdu  punjabi,,,,,female
Y8fgW,12,14,fem_plain,fem_sws,3,cheese,shoes,shoes,cheese,shoes,fem_plain_fem_sws,critical,3/16/2017,10:21,right,true,5138,2,2_1_1_1,word_1_word_2,near,shoes,Clear_Before,preschool,hanna,2014-06-14,,English,Urdu  punjabi,,,,,female
Y8fgW,13,1,fem_plain,fem_sws,1,baby,spoon,spoon,baby,spoon,fem_plain_fem_sws,critical,3/16/2017,10:21,left,true,2370,2,1_2_2_1,word_2_word_1,near,baby,Clear_Before,preschool,hanna,2014-06-14,,English,Urdu  punjabi,,,,,female
Y8fgW,13,1,fem_plain,fem_sws,2,baby,spoon,spoon,baby,spoon,fem_plain_fem_sws,critical,3/16/2017,10:21,right,true,3503,1,1_2_2_1,word_2_word_1,near,spoon,Clear_Before,preschool,hanna,2014-06-14,,English,Urdu  punjabi,,,,,female
Y8fgW,13,1,fem_plain,fem_sws,3,baby,spoon,spoon,baby,spoon,fem_plain_fem_sws,critical,3/16/2017,10:21,right,true,6750,3,1_2_2_1,word_2_word_1,near,spoon,Clear_Before,preschool,hanna,2014-06-14,,English,Urdu  punjabi,,,,,female
Y8fgW,14,5,fem_plain,fem_sws,1,orange,car,orange,orange,car,fem_plain_fem_sws,critical,3/16/2017,10:21,left,true,2747,2,2_1_2_1,word_1_word_2,far,orange,Clear_Before,preschool,hanna,2014-06-14,,English,Urdu  punjabi,,,,,female
Y8fgW,14,5,fem_plain,fem_sws,2,orange,car,orange,orange,car,fem_plain_fem_sws,critical,3/16/2017,10:21,right,true,554,2,2_1_2_1,word_1_word_2,far,car,Clear_Before,preschool,hanna,2014-06-14,,English,Urdu  punjabi,,,,,female
Y8fgW,14,5,fem_plain,fem_sws,3,orange,car,orange,orange,car,fem_plain_fem_sws,critical,3/16/2017,10:21,right,false,8413,2,2_1_2_1,word_1_word_2,far,car,Clear_Before,preschool,hanna,2014-06-14,,English,Urdu  punjabi,,,,,female
Y8fgW,15,13,fem_plain,fem_sws,1,toothbrush,airplane,toothbrush,toothbrush,airplane,fem_plain_fem_sws,critical,3/16/2017,10:21,left,true,2350,2,2_1_2_1,word_1_word_2,far,toothbrush,Clear_Before,preschool,hanna,2014-06-14,,English,Urdu  punjabi,,,,,female
Y8fgW,15,13,fem_plain,fem_sws,2,toothbrush,airplane,toothbrush,toothbrush,airplane,fem_plain_fem_sws,critical,3/16/2017,10:21,right,true,1030,1,2_1_2_1,word_1_word_2,far,airplane,Clear_Before,preschool,hanna,2014-06-14,,English,Urdu  punjabi,,,,,female
Y8fgW,15,13,fem_plain,fem_sws,3,toothbrush,airplane,toothbrush,toothbrush,airplane,fem_plain_fem_sws,critical,3/16/2017,10:21,right,false,7733,2,2_1_2_1,word_1_word_2,far,airplane,Clear_Before,preschool,hanna,2014-06-14,,English,Urdu  punjabi,,,,,female
Y8fgW,16,12,fem_plain,fem_sws,1,yoghurt,foot,foot,yoghurt,foot,fem_plain_fem_sws,critical,3/16/2017,10:21,left,true,2442,2,2_1_1_1,word_2_word_1,near,yoghurt,Clear_Before,preschool,hanna,2014-06-14,,English,Urdu  punjabi,,,,,female
Y8fgW,16,12,fem_plain,fem_sws,2,yoghurt,foot,foot,yoghurt,foot,fem_plain_fem_sws,critical,3/16/2017,10:21,right,true,1735,2,2_1_1_1,word_2_word_1,near,foot,Clear_Before,preschool,hanna,2014-06-14,,English,Urdu  punjabi,,,,,female
Y8fgW,16,12,fem_plain,fem_sws,3,yoghurt,foot,foot,yoghurt,foot,fem_plain_fem_sws,critical,3/16/2017,10:21,right,true,6664,2,2_1_1_1,word_2_word_1,near,foot,Clear_Before,preschool,hanna,2014-06-14,,English,Urdu  punjabi,,,,,female
Y8fgW,17,3,fem_plain,fem_sws,1,trousers,nose,trousers,trousers,nose,fem_plain_fem_sws,critical,3/16/2017,10:21,left,true,1780,2,1_2_1_1,word_1_word_2,far,trousers,Clear_Before,preschool,hanna,2014-06-14,,English,Urdu  punjabi,,,,,female
Y8fgW,17,3,fem_plain,fem_sws,2,trousers,nose,trousers,trousers,nose,fem_plain_fem_sws,critical,3/16/2017,10:21,right,true,1987,1,1_2_1_1,word_1_word_2,far,nose,Clear_Before,preschool,hanna,2014-06-14,,English,Urdu  punjabi,,,,,female
Y8fgW,17,3,fem_plain,fem_sws,3,trousers,nose,trousers,trousers,nose,fem_plain_fem_sws,critical,3/16/2017,10:21,right,false,8434,2,1_2_1_1,word_1_word_2,far,nose,Clear_Before,preschool,hanna,2014-06-14,,English,Urdu  punjabi,,,,,female
Y8fgW,18,15,fem_plain,fem_sws,1,slide,pencil,pencil,slide,pencil,fem_plain_fem_sws,critical,3/16/2017,10:21,left,true,6017,2,1_2_2_1,word_1_word_2,near,slide,Clear_Before,preschool,hanna,2014-06-14,,English,Urdu  punjabi,,,,,female
Y8fgW,18,15,fem_plain,fem_sws,2,slide,pencil,pencil,slide,pencil,fem_plain_fem_sws,critical,3/16/2017,10:21,right,true,997,1,1_2_2_1,word_1_word_2,near,pencil,Clear_Before,preschool,hanna,2014-06-14,,English,Urdu  punjabi,,,,,female
Y8fgW,18,15,fem_plain,fem_sws,3,slide,pencil,pencil,slide,pencil,fem_plain_fem_sws,critical,3/16/2017,10:21,right,true,1605,2,1_2_2_1,word_1_word_2,near,pencil,Clear_Before,preschool,hanna,2014-06-14,,English,Urdu  punjabi,,,,,female
Y8fgW,19,8,fem_plain,fem_sws,1,wellyboots,fire_engine,wellyboots,fire_engine,wellyboots,fem_plain_fem_sws,critical,3/16/2017,10:21,right,true,5647,2,2_1_2_1,word_2_word_1,far,wellyboots,Clear_Before,preschool,hanna,2014-06-14,,English,Urdu  punjabi,,,,,female
Y8fgW,19,8,fem_plain,fem_sws,2,wellyboots,fire_engine,wellyboots,fire_engine,wellyboots,fem_plain_fem_sws,critical,3/16/2017,10:21,right,false,2682,2,2_1_2_1,word_2_word_1,far,wellyboots,Clear_Before,preschool,hanna,2014-06-14,,English,Urdu  punjabi,,,,,female
Y8fgW,19,8,fem_plain,fem_sws,3,wellyboots,fire_engine,wellyboots,fire_engine,wellyboots,fem_plain_fem_sws,critical,3/16/2017,10:21,left,false,4432,1,2_1_2_1,word_2_word_1,far,fire_engine,Clear_Before,preschool,hanna,2014-06-14,,English,Urdu  punjabi,,,,,female
Y8fgW,20,11,fem_plain,fem_sws,1,lorry,book,book,book,lorry,fem_plain_fem_sws,critical,3/16/2017,10:21,right,true,2620,1,2_1_1_1,word_1_word_2,near,lorry,Clear_Before,preschool,hanna,2014-06-14,,English,Urdu  punjabi,,,,,female
Y8fgW,20,11,fem_plain,fem_sws,2,lorry,book,book,book,lorry,fem_plain_fem_sws,critical,3/16/2017,10:21,left,true,1155,1,2_1_1_1,word_1_word_2,near,book,Clear_Before,preschool,hanna,2014-06-14,,English,Urdu  punjabi,,,,,female
Y8fgW,20,11,fem_plain,fem_sws,3,lorry,book,book,book,lorry,fem_plain_fem_sws,critical,3/16/2017,10:21,left,true,3033,2,2_1_1_1,word_1_word_2,near,book,Clear_Before,preschool,hanna,2014-06-14,,English,Urdu  punjabi,,,,,female
Y8fgW,21,19,fem_plain,fem_sws,1,santa,building_blocks,santa,building_blocks,santa,fem_plain_fem_sws,critical,3/16/2017,10:21,right,true,8055,2,1_2_1_1,word_2_word_1,far,santa,Clear_Before,preschool,hanna,2014-06-14,,English,Urdu  punjabi,,,,,female
Y8fgW,21,19,fem_plain,fem_sws,2,santa,building_blocks,santa,building_blocks,santa,fem_plain_fem_sws,critical,3/16/2017,10:21,right,false,3589,2,1_2_1_1,word_2_word_1,far,santa,Clear_Before,preschool,hanna,2014-06-14,,English,Urdu  punjabi,,,,,female
Y8fgW,21,19,fem_plain,fem_sws,3,santa,building_blocks,santa,building_blocks,santa,fem_plain_fem_sws,critical,3/16/2017,10:21,left,false,2410,1,1_2_1_1,word_2_word_1,far,building_blocks,Clear_Before,preschool,hanna,2014-06-14,,English,Urdu  punjabi,,,,,female
Y8fgW,22,23,fem_plain,fem_sws,1,teddy_bear,bath,bath,bath,teddy_bear,fem_plain_fem_sws,critical,3/16/2017,10:21,left,false,4570,2,2_1_1_1,word_1_word_2,near,bath,Clear_Before,preschool,hanna,2014-06-14,,English,Urdu  punjabi,,,,,female
Y8fgW,22,23,fem_plain,fem_sws,2,teddy_bear,bath,bath,bath,teddy_bear,fem_plain_fem_sws,critical,3/16/2017,10:21,right,false,2571,1,2_1_1_1,word_1_word_2,near,teddy_bear,Clear_Before,preschool,hanna,2014-06-14,,English,Urdu  punjabi,,,,,female
Y8fgW,22,23,fem_plain,fem_sws,3,teddy_bear,bath,bath,bath,teddy_bear,fem_plain_fem_sws,critical,3/16/2017,10:21,left,true,2586,2,2_1_1_1,word_1_word_2,near,bath,Clear_Before,preschool,hanna,2014-06-14,,English,Urdu  punjabi,,,,,female
Y8fgW,23,10,fem_plain,fem_sws,1,tshirt,pig,tshirt,pig,tshirt,fem_plain_fem_sws,critical,3/16/2017,10:21,left,false,4094,2,2_1_2_1,word_1_word_2,far,pig,Clear_Before,preschool,hanna,2014-06-14,,English,Urdu  punjabi,,,,,female
Y8fgW,23,10,fem_plain,fem_sws,2,tshirt,pig,tshirt,pig,tshirt,fem_plain_fem_sws,critical,3/16/2017,10:21,right,false,2402,1,2_1_2_1,word_1_word_2,far,tshirt,Clear_Before,preschool,hanna,2014-06-14,,English,Urdu  punjabi,,,,,female
Y8fgW,23,10,fem_plain,fem_sws,3,tshirt,pig,tshirt,pig,tshirt,fem_plain_fem_sws,critical,3/16/2017,10:21,left,false,2405,1,2_1_2_1,word_1_word_2,far,pig,Clear_Before,preschool,hanna,2014-06-14,,English,Urdu  punjabi,,,,,female
Y8fgW,24,16,fem_plain,fem_sws,1,banana,paintbrush,banana,banana,paintbrush,fem_plain_fem_sws,critical,3/16/2017,10:21,left,true,2607,2,2_1_2_1,word_2_word_1,far,banana,Clear_Before,preschool,hanna,2014-06-14,,English,Urdu  punjabi,,,,,female
Y8fgW,24,16,fem_plain,fem_sws,2,banana,paintbrush,banana,banana,paintbrush,fem_plain_fem_sws,critical,3/16/2017,10:21,left,false,2282,1,2_1_2_1,word_2_word_1,far,banana,Clear_Before,preschool,hanna,2014-06-14,,English,Urdu  punjabi,,,,,female
Y8fgW,24,16,fem_plain,fem_sws,3,banana,paintbrush,banana,banana,paintbrush,fem_plain_fem_sws,critical,3/16/2017,10:21,right,false,832,1,2_1_2_1,word_2_word_1,far,paintbrush,Clear_Before,preschool,hanna,2014-06-14,,English,Urdu  punjabi,,,,,female
Y8fgW,25,4,fem_plain,fem_sws,1,strawberry,coat,strawberry,coat,strawberry,fem_plain_fem_sws,critical,3/16/2017,10:21,left,false,2003,2,1_2_1_1,word_1_word_2,far,coat,Clear_Before,preschool,hanna,2014-06-14,,English,Urdu  punjabi,,,,,female
Y8fgW,25,4,fem_plain,fem_sws,2,strawberry,coat,strawberry,coat,strawberry,fem_plain_fem_sws,critical,3/16/2017,10:21,right,false,271,1,1_2_1_1,word_1_word_2,far,strawberry,Clear_Before,preschool,hanna,2014-06-14,,English,Urdu  punjabi,,,,,female
Y8fgW,25,4,fem_plain,fem_sws,3,strawberry,coat,strawberry,coat,strawberry,fem_plain_fem_sws,critical,3/16/2017,10:21,right,true,334,1,1_2_1_1,word_1_word_2,far,strawberry,Clear_Before,preschool,hanna,2014-06-14,,English,Urdu  punjabi,,,,,female
