subject_id,trial_number,trial_id,plain,sws,instruction_number,sound1_item,sound2_item,sound3_item,left_image,right_image,sound_gender,trial_type,date_stamp,time_stamp,side_chosen,accuracy,rt,play_counter,order,pic_position,distance,chosen_pic,test_lang,testing_loc,tester,date_of_birth,ethnicity,native_lang,other_langs,parental_occ,dev_info,birth_order,num_siblings,gender
z5zkc,1,0,mal_plain,fem_sws,1,fireman,glasses,glasses,fireman,glasses,mal_plain_fem_sws,training,4/7/2017,11:48,right,false,8241,6,2_1_1_1,word_1_word_2,near,glasses,Clear_After,lab,hanna,2014-08-21,,English,,,,1,1,female
z5zkc,1,0,mal_plain,fem_sws,2,fireman,glasses,glasses,fireman,glasses,mal_plain_fem_sws,training,4/7/2017,11:48,left,false,2302,2,2_1_1_1,word_1_word_2,near,fireman,Clear_After,lab,hanna,2014-08-21,,English,,,,1,1,female
z5zkc,1,0,mal_plain,fem_sws,3,fireman,glasses,glasses,fireman,glasses,mal_plain_fem_sws,training,4/7/2017,11:48,right,true,2556,1,2_1_1_1,word_1_word_2,near,glasses,Clear_After,lab,hanna,2014-08-21,,English,,,,1,1,female
z5zkc,2,4,mal_plain,fem_sws,1,strawberry,coat,strawberry,strawberry,coat,mal_plain_fem_sws,critical,4/7/2017,11:48,right,false,6624,4,2_1_2_1,word_2_word_1,far,coat,Clear_After,lab,hanna,2014-08-21,,English,,,,1,1,female
z5zkc,2,4,mal_plain,fem_sws,2,strawberry,coat,strawberry,strawberry,coat,mal_plain_fem_sws,critical,4/7/2017,11:48,left,false,2808,2,2_1_2_1,word_2_word_1,far,strawberry,Clear_After,lab,hanna,2014-08-21,,English,,,,1,1,female
z5zkc,2,4,mal_plain,fem_sws,3,strawberry,coat,strawberry,strawberry,coat,mal_plain_fem_sws,critical,4/7/2017,11:48,right,false,3225,2,2_1_2_1,word_2_word_1,far,coat,Clear_After,lab,hanna,2014-08-21,,English,,,,1,1,female
z5zkc,3,11,mal_plain,fem_sws,1,lorry,book,book,book,lorry,mal_plain_fem_sws,critical,4/7/2017,11:48,right,true,6292,4,2_1_1_1,word_1_word_2,near,lorry,Clear_After,lab,hanna,2014-08-21,,English,,,,1,1,female
z5zkc,3,11,mal_plain,fem_sws,2,lorry,book,book,book,lorry,mal_plain_fem_sws,critical,4/7/2017,11:48,right,false,2665,1,2_1_1_1,word_1_word_2,near,lorry,Clear_After,lab,hanna,2014-08-21,,English,,,,1,1,female
z5zkc,3,11,mal_plain,fem_sws,3,lorry,book,book,book,lorry,mal_plain_fem_sws,critical,4/7/2017,11:48,left,true,2484,1,2_1_1_1,word_1_word_2,near,book,Clear_After,lab,hanna,2014-08-21,,English,,,,1,1,female
z5zkc,4,21,mal_plain,fem_sws,1,frog,sheep,frog,sheep,frog,mal_plain_fem_sws,critical,4/7/2017,11:48,right,true,3247,2,1_2_1_1,word_2_word_1,far,frog,Clear_After,lab,hanna,2014-08-21,,English,,,,1,1,female
z5zkc,4,21,mal_plain,fem_sws,2,frog,sheep,frog,sheep,frog,mal_plain_fem_sws,critical,4/7/2017,11:48,right,false,3515,2,1_2_1_1,word_2_word_1,far,frog,Clear_After,lab,hanna,2014-08-21,,English,,,,1,1,female
z5zkc,4,21,mal_plain,fem_sws,3,frog,sheep,frog,sheep,frog,mal_plain_fem_sws,critical,4/7/2017,11:48,left,false,2510,1,1_2_1_1,word_2_word_1,far,sheep,Clear_After,lab,hanna,2014-08-21,,English,,,,1,1,female
z5zkc,5,14,mal_plain,fem_sws,1,cheese,shoes,cheese,shoes,cheese,mal_plain_fem_sws,critical,4/7/2017,11:48,left,false,5762,4,1_2_1_1,word_2_word_1,far,shoes,Clear_After,lab,hanna,2014-08-21,,English,,,,1,1,female
z5zkc,5,14,mal_plain,fem_sws,2,cheese,shoes,cheese,shoes,cheese,mal_plain_fem_sws,critical,4/7/2017,11:48,right,false,2517,1,1_2_1_1,word_2_word_1,far,cheese,Clear_After,lab,hanna,2014-08-21,,English,,,,1,1,female
z5zkc,5,14,mal_plain,fem_sws,3,cheese,shoes,cheese,shoes,cheese,mal_plain_fem_sws,critical,4/7/2017,11:48,left,false,2375,1,1_2_1_1,word_2_word_1,far,shoes,Clear_After,lab,hanna,2014-08-21,,English,,,,1,1,female
z5zkc,6,13,mal_plain,fem_sws,1,airplane,toothbrush,toothbrush,airplane,toothbrush,mal_plain_fem_sws,critical,4/7/2017,11:48,right,false,4772,2,1_2_2_1,word_2_word_1,near,toothbrush,Clear_After,lab,hanna,2014-08-21,,English,,,,1,1,female
z5zkc,6,13,mal_plain,fem_sws,2,airplane,toothbrush,toothbrush,airplane,toothbrush,mal_plain_fem_sws,critical,4/7/2017,11:48,left,false,2209,2,1_2_2_1,word_2_word_1,near,airplane,Clear_After,lab,hanna,2014-08-21,,English,,,,1,1,female
z5zkc,6,13,mal_plain,fem_sws,3,airplane,toothbrush,toothbrush,airplane,toothbrush,mal_plain_fem_sws,critical,4/7/2017,11:48,right,true,1892,1,1_2_2_1,word_2_word_1,near,toothbrush,Clear_After,lab,hanna,2014-08-21,,English,,,,1,1,female
z5zkc,7,16,mal_plain,fem_sws,1,banana,paintbrush,paintbrush,paintbrush,banana,mal_plain_fem_sws,critical,4/7/2017,11:48,right,true,3633,2,1_2_2_1,word_1_word_2,near,banana,Clear_After,lab,hanna,2014-08-21,,English,,,,1,1,female
z5zkc,7,16,mal_plain,fem_sws,2,banana,paintbrush,paintbrush,paintbrush,banana,mal_plain_fem_sws,critical,4/7/2017,11:48,right,false,2561,1,1_2_2_1,word_1_word_2,near,banana,Clear_After,lab,hanna,2014-08-21,,English,,,,1,1,female
z5zkc,7,16,mal_plain,fem_sws,3,banana,paintbrush,paintbrush,paintbrush,banana,mal_plain_fem_sws,critical,4/7/2017,11:48,left,true,4484,2,1_2_2_1,word_1_word_2,near,paintbrush,Clear_After,lab,hanna,2014-08-21,,English,,,,1,1,female
z5zkc,8,5,mal_plain,fem_sws,1,orange,car,orange,orange,car,mal_plain_fem_sws,critical,4/7/2017,11:48,left,true,3987,2,2_1_2_1,word_1_word_2,far,orange,Clear_After,lab,hanna,2014-08-21,,English,,,,1,1,female
z5zkc,8,5,mal_plain,fem_sws,2,orange,car,orange,orange,car,mal_plain_fem_sws,critical,4/7/2017,11:48,left,false,3777,1,2_1_2_1,word_1_word_2,far,orange,Clear_After,lab,hanna,2014-08-21,,English,,,,1,1,female
z5zkc,8,5,mal_plain,fem_sws,3,orange,car,orange,orange,car,mal_plain_fem_sws,critical,4/7/2017,11:48,right,false,2214,2,2_1_2_1,word_1_word_2,far,car,Clear_After,lab,hanna,2014-08-21,,English,,,,1,1,female
z5zkc,9,20,mal_plain,fem_sws,1,jumper,rabbit,rabbit,jumper,rabbit,mal_plain_fem_sws,critical,4/7/2017,11:48,right,false,2570,2,2_1_1_1,word_1_word_2,near,rabbit,Clear_After,lab,hanna,2014-08-21,,English,,,,1,1,female
z5zkc,9,20,mal_plain,fem_sws,2,jumper,rabbit,rabbit,jumper,rabbit,mal_plain_fem_sws,critical,4/7/2017,11:48,left,false,912,1,2_1_1_1,word_1_word_2,near,jumper,Clear_After,lab,hanna,2014-08-21,,English,,,,1,1,female
z5zkc,9,20,mal_plain,fem_sws,3,jumper,rabbit,rabbit,jumper,rabbit,mal_plain_fem_sws,critical,4/7/2017,11:48,right,true,2046,2,2_1_1_1,word_1_word_2,near,rabbit,Clear_After,lab,hanna,2014-08-21,,English,,,,1,1,female
z5zkc,10,24,mal_plain,fem_sws,1,sink,fish,sink,sink,fish,mal_plain_fem_sws,critical,4/7/2017,11:48,right,false,3655,2,2_1_2_1,word_1_word_2,far,fish,Clear_After,lab,hanna,2014-08-21,,English,,,,1,1,female
z5zkc,10,24,mal_plain,fem_sws,2,sink,fish,sink,sink,fish,mal_plain_fem_sws,critical,4/7/2017,11:48,left,false,311,1,2_1_2_1,word_1_word_2,far,sink,Clear_After,lab,hanna,2014-08-21,,English,,,,1,1,female
z5zkc,10,24,mal_plain,fem_sws,3,sink,fish,sink,sink,fish,mal_plain_fem_sws,critical,4/7/2017,11:48,right,false,2918,2,2_1_2_1,word_1_word_2,far,fish,Clear_After,lab,hanna,2014-08-21,,English,,,,1,1,female
z5zkc,11,22,mal_plain,fem_sws,1,dog,bike,dog,bike,dog,mal_plain_fem_sws,critical,4/7/2017,11:48,right,true,4133,4,1_2_1_1,word_1_word_2,far,dog,Clear_After,lab,hanna,2014-08-21,,English,,,,1,1,female
z5zkc,11,22,mal_plain,fem_sws,2,dog,bike,dog,bike,dog,mal_plain_fem_sws,critical,4/7/2017,11:48,left,true,3145,2,1_2_1_1,word_1_word_2,far,bike,Clear_After,lab,hanna,2014-08-21,,English,,,,1,1,female
z5zkc,11,22,mal_plain,fem_sws,3,dog,bike,dog,bike,dog,mal_plain_fem_sws,critical,4/7/2017,11:48,left,false,4124,2,1_2_1_1,word_1_word_2,far,bike,Clear_After,lab,hanna,2014-08-21,,English,,,,1,1,female
z5zkc,12,1,mal_plain,fem_sws,1,spoon,baby,baby,baby,spoon,mal_plain_fem_sws,critical,4/7/2017,11:48,left,false,3055,4,1_2_2_1,word_2_word_1,near,baby,Clear_After,lab,hanna,2014-08-21,,English,,,,1,1,female
z5zkc,12,1,mal_plain,fem_sws,2,spoon,baby,baby,baby,spoon,mal_plain_fem_sws,critical,4/7/2017,11:48,right,false,2064,2,1_2_2_1,word_2_word_1,near,spoon,Clear_After,lab,hanna,2014-08-21,,English,,,,1,1,female
z5zkc,12,1,mal_plain,fem_sws,3,spoon,baby,baby,baby,spoon,mal_plain_fem_sws,critical,4/7/2017,11:48,left,true,2481,3,1_2_2_1,word_2_word_1,near,baby,Clear_After,lab,hanna,2014-08-21,,English,,,,1,1,female
z5zkc,13,19,mal_plain,fem_sws,1,santa,building_blocks,building_blocks,building_blocks,santa,mal_plain_fem_sws,critical,4/7/2017,11:48,right,true,3357,2,1_2_2_1,word_2_word_1,near,santa,Clear_After,lab,hanna,2014-08-21,,English,,,,1,1,female
z5zkc,13,19,mal_plain,fem_sws,2,santa,building_blocks,building_blocks,building_blocks,santa,mal_plain_fem_sws,critical,4/7/2017,11:48,right,false,3846,1,1_2_2_1,word_2_word_1,near,santa,Clear_After,lab,hanna,2014-08-21,,English,,,,1,1,female
z5zkc,13,19,mal_plain,fem_sws,3,santa,building_blocks,building_blocks,building_blocks,santa,mal_plain_fem_sws,critical,4/7/2017,11:48,left,true,2917,2,1_2_2_1,word_2_word_1,near,building_blocks,Clear_After,lab,hanna,2014-08-21,,English,,,,1,1,female
z5zkc,14,12,mal_plain,fem_sws,1,yoghurt,foot,yoghurt,yoghurt,foot,mal_plain_fem_sws,critical,4/7/2017,11:48,right,false,2612,2,2_1_2_1,word_2_word_1,far,foot,Clear_After,lab,hanna,2014-08-21,,English,,,,1,1,female
z5zkc,14,12,mal_plain,fem_sws,2,yoghurt,foot,yoghurt,yoghurt,foot,mal_plain_fem_sws,critical,4/7/2017,11:48,left,false,2206,1,2_1_2_1,word_2_word_1,far,yoghurt,Clear_After,lab,hanna,2014-08-21,,English,,,,1,1,female
z5zkc,14,12,mal_plain,fem_sws,3,yoghurt,foot,yoghurt,yoghurt,foot,mal_plain_fem_sws,critical,4/7/2017,11:48,right,false,2718,1,2_1_2_1,word_2_word_1,far,foot,Clear_After,lab,hanna,2014-08-21,,English,,,,1,1,female
z5zkc,15,18,mal_plain,fem_sws,1,ball,raspberry,ball,raspberry,ball,mal_plain_fem_sws,critical,4/7/2017,11:48,right,true,2980,2,2_1_2_1,word_2_word_1,far,ball,Clear_After,lab,hanna,2014-08-21,,English,,,,1,1,female
z5zkc,15,18,mal_plain,fem_sws,2,ball,raspberry,ball,raspberry,ball,mal_plain_fem_sws,critical,4/7/2017,11:48,right,false,2908,1,2_1_2_1,word_2_word_1,far,ball,Clear_After,lab,hanna,2014-08-21,,English,,,,1,1,female
z5zkc,15,18,mal_plain,fem_sws,3,ball,raspberry,ball,raspberry,ball,mal_plain_fem_sws,critical,4/7/2017,11:48,left,false,8355,1,2_1_2_1,word_2_word_1,far,raspberry,Clear_After,lab,hanna,2014-08-21,,English,,,,1,1,female
z5zkc,16,7,mal_plain,fem_sws,1,horse,lolly,horse,lolly,horse,mal_plain_fem_sws,critical,4/7/2017,11:48,right,true,3766,4,2_1_2_1,word_1_word_2,far,horse,Clear_After,lab,hanna,2014-08-21,,English,,,,1,1,female
z5zkc,16,7,mal_plain,fem_sws,2,horse,lolly,horse,lolly,horse,mal_plain_fem_sws,critical,4/7/2017,11:48,left,true,827,1,2_1_2_1,word_1_word_2,far,lolly,Clear_After,lab,hanna,2014-08-21,,English,,,,1,1,female
z5zkc,16,7,mal_plain,fem_sws,3,horse,lolly,horse,lolly,horse,mal_plain_fem_sws,critical,4/7/2017,11:48,right,true,985,2,2_1_2_1,word_1_word_2,far,horse,Clear_After,lab,hanna,2014-08-21,,English,,,,1,1,female
z5zkc,17,3,mal_plain,fem_sws,1,nose,trousers,nose,trousers,nose,mal_plain_fem_sws,critical,4/7/2017,11:48,right,true,1651,2,1_2_1_1,word_1_word_2,far,nose,Clear_After,lab,hanna,2014-08-21,,English,,,,1,1,female
z5zkc,17,3,mal_plain,fem_sws,2,nose,trousers,nose,trousers,nose,mal_plain_fem_sws,critical,4/7/2017,11:48,left,true,1572,3,1_2_1_1,word_1_word_2,far,trousers,Clear_After,lab,hanna,2014-08-21,,English,,,,1,1,female
z5zkc,17,3,mal_plain,fem_sws,3,nose,trousers,nose,trousers,nose,mal_plain_fem_sws,critical,4/7/2017,11:48,right,true,1955,2,1_2_1_1,word_1_word_2,far,nose,Clear_After,lab,hanna,2014-08-21,,English,,,,1,1,female
z5zkc,18,10,mal_plain,fem_sws,1,pig,tshirt,tshirt,tshirt,pig,mal_plain_fem_sws,critical,4/7/2017,11:48,right,true,4451,2,2_1_1_1,word_2_word_1,near,pig,Clear_After,lab,hanna,2014-08-21,,English,,,,1,1,female
z5zkc,18,10,mal_plain,fem_sws,2,pig,tshirt,tshirt,tshirt,pig,mal_plain_fem_sws,critical,4/7/2017,11:48,left,true,630,1,2_1_1_1,word_2_word_1,near,tshirt,Clear_After,lab,hanna,2014-08-21,,English,,,,1,1,female
z5zkc,18,10,mal_plain,fem_sws,3,pig,tshirt,tshirt,tshirt,pig,mal_plain_fem_sws,critical,4/7/2017,11:48,left,true,3636,2,2_1_1_1,word_2_word_1,near,tshirt,Clear_After,lab,hanna,2014-08-21,,English,,,,1,1,female
z5zkc,19,9,mal_plain,fem_sws,1,pizza,window,window,pizza,window,mal_plain_fem_sws,critical,4/7/2017,11:48,right,false,2785,2,1_2_2_1,word_1_word_2,near,window,Clear_After,lab,hanna,2014-08-21,,English,,,,1,1,female
z5zkc,19,9,mal_plain,fem_sws,2,pizza,window,window,pizza,window,mal_plain_fem_sws,critical,4/7/2017,11:48,left,false,2927,2,1_2_2_1,word_1_word_2,near,pizza,Clear_After,lab,hanna,2014-08-21,,English,,,,1,1,female
z5zkc,19,9,mal_plain,fem_sws,3,pizza,window,window,pizza,window,mal_plain_fem_sws,critical,4/7/2017,11:48,right,true,2620,2,1_2_2_1,word_1_word_2,near,window,Clear_After,lab,hanna,2014-08-21,,English,,,,1,1,female
z5zkc,20,2,mal_plain,fem_sws,1,bed,chicken,chicken,bed,chicken,mal_plain_fem_sws,critical,4/7/2017,11:48,right,false,3233,2,2_1_1_1,word_1_word_2,near,chicken,Clear_After,lab,hanna,2014-08-21,,English,,,,1,1,female
z5zkc,20,2,mal_plain,fem_sws,2,bed,chicken,chicken,bed,chicken,mal_plain_fem_sws,critical,4/7/2017,11:48,left,false,3266,1,2_1_1_1,word_1_word_2,near,bed,Clear_After,lab,hanna,2014-08-21,,English,,,,1,1,female
z5zkc,20,2,mal_plain,fem_sws,3,bed,chicken,chicken,bed,chicken,mal_plain_fem_sws,critical,4/7/2017,11:48,right,true,2919,1,2_1_1_1,word_1_word_2,near,chicken,Clear_After,lab,hanna,2014-08-21,,English,,,,1,1,female
z5zkc,21,17,mal_plain,fem_sws,1,ambulance,cake,cake,ambulance,cake,mal_plain_fem_sws,critical,4/7/2017,11:48,right,false,3168,2,1_2_2_1,word_2_word_1,near,cake,Clear_After,lab,hanna,2014-08-21,,English,,,,1,1,female
z5zkc,21,17,mal_plain,fem_sws,2,ambulance,cake,cake,ambulance,cake,mal_plain_fem_sws,critical,4/7/2017,11:48,left,false,3003,3,1_2_2_1,word_2_word_1,near,ambulance,Clear_After,lab,hanna,2014-08-21,,English,,,,1,1,female
z5zkc,21,17,mal_plain,fem_sws,3,ambulance,cake,cake,ambulance,cake,mal_plain_fem_sws,critical,4/7/2017,11:48,right,true,2688,1,1_2_2_1,word_2_word_1,near,cake,Clear_After,lab,hanna,2014-08-21,,English,,,,1,1,female
z5zkc,22,23,mal_plain,fem_sws,1,bath,teddy_bear,bath,teddy_bear,bath,mal_plain_fem_sws,critical,4/7/2017,11:48,right,true,4866,2,1_2_1_1,word_2_word_1,far,bath,Clear_After,lab,hanna,2014-08-21,,English,,,,1,1,female
z5zkc,22,23,mal_plain,fem_sws,2,bath,teddy_bear,bath,teddy_bear,bath,mal_plain_fem_sws,critical,4/7/2017,11:48,right,false,4574,1,1_2_1_1,word_2_word_1,far,bath,Clear_After,lab,hanna,2014-08-21,,English,,,,1,1,female
z5zkc,22,23,mal_plain,fem_sws,3,bath,teddy_bear,bath,teddy_bear,bath,mal_plain_fem_sws,critical,4/7/2017,11:48,left,false,2793,1,1_2_1_1,word_2_word_1,far,teddy_bear,Clear_After,lab,hanna,2014-08-21,,English,,,,1,1,female
z5zkc,23,6,mal_plain,fem_sws,1,bird,peas,peas,bird,peas,mal_plain_fem_sws,critical,4/7/2017,11:48,right,false,3711,2,2_1_1_1,word_1_word_2,near,peas,Clear_After,lab,hanna,2014-08-21,,English,,,,1,1,female
z5zkc,23,6,mal_plain,fem_sws,2,bird,peas,peas,bird,peas,mal_plain_fem_sws,critical,4/7/2017,11:48,left,false,4519,4,2_1_1_1,word_1_word_2,near,bird,Clear_After,lab,hanna,2014-08-21,,English,,,,1,1,female
z5zkc,23,6,mal_plain,fem_sws,3,bird,peas,peas,bird,peas,mal_plain_fem_sws,critical,4/7/2017,11:48,right,true,4736,1,2_1_1_1,word_1_word_2,near,peas,Clear_After,lab,hanna,2014-08-21,,English,,,,1,1,female
z5zkc,24,15,mal_plain,fem_sws,1,slide,pencil,slide,slide,pencil,mal_plain_fem_sws,critical,4/7/2017,11:48,right,false,4486,2,1_2_1_1,word_1_word_2,far,pencil,Clear_After,lab,hanna,2014-08-21,,English,,,,1,1,female
z5zkc,24,15,mal_plain,fem_sws,2,slide,pencil,slide,slide,pencil,mal_plain_fem_sws,critical,4/7/2017,11:48,left,false,3521,2,1_2_1_1,word_1_word_2,far,slide,Clear_After,lab,hanna,2014-08-21,,English,,,,1,1,female
z5zkc,24,15,mal_plain,fem_sws,3,slide,pencil,slide,slide,pencil,mal_plain_fem_sws,critical,4/7/2017,11:48,right,false,11502,2,1_2_1_1,word_1_word_2,far,pencil,Clear_After,lab,hanna,2014-08-21,,English,,,,1,1,female
z5zkc,25,8,mal_plain,fem_sws,1,wellyboots,fire_engine,wellyboots,fire_engine,wellyboots,mal_plain_fem_sws,critical,4/7/2017,11:48,right,true,2835,2,1_2_1_1,word_2_word_1,far,wellyboots,Clear_After,lab,hanna,2014-08-21,,English,,,,1,1,female
z5zkc,25,8,mal_plain,fem_sws,2,wellyboots,fire_engine,wellyboots,fire_engine,wellyboots,mal_plain_fem_sws,critical,4/7/2017,11:48,right,false,2735,1,1_2_1_1,word_2_word_1,far,wellyboots,Clear_After,lab,hanna,2014-08-21,,English,,,,1,1,female
z5zkc,25,8,mal_plain,fem_sws,3,wellyboots,fire_engine,wellyboots,fire_engine,wellyboots,mal_plain_fem_sws,critical,4/7/2017,11:48,left,false,3125,2,1_2_1_1,word_2_word_1,far,fire_engine,Clear_After,lab,hanna,2014-08-21,,English,,,,1,1,female
